 Eloss (eV)   Int (a.u.)
   0.000000 31083.516534
   0.001600 31077.506641
   0.003201 31059.481041
   0.004801 31029.461068
   0.006401 30987.482231
   0.008002 30933.594143
   0.009602 30867.860421
   0.011202 30790.358565
   0.012803 30701.179803
   0.014403 30600.428911
   0.016003 30488.224010
   0.017604 30364.696333
   0.019204 30229.989969
   0.020804 30084.261585
   0.022404 29927.680118
   0.024005 29760.426451
   0.025605 29582.693065
   0.027205 29394.683667
   0.028806 29196.612801
   0.030406 28988.705442
   0.032006 28771.196568
   0.033607 28544.330716
   0.035207 28308.361528
   0.036807 28063.551273
   0.038408 27810.170367
   0.040008 27548.496870
   0.041608 27278.815983
   0.043209 27001.419526
   0.044809 26716.605419
   0.046409 26424.677144
   0.048010 26125.943212
   0.049610 25820.716623
   0.051210 25509.314316
   0.052811 25192.056634
   0.054411 24869.266769
   0.056011 24541.270227
   0.057612 24208.394281
   0.059212 23870.967437
   0.060812 23529.318899
   0.062412 23183.778046
   0.064013 22834.673912
   0.065613 22482.334673
   0.067213 22127.087151
   0.068814 21769.256318
   0.070414 21409.164823
   0.072014 21047.132520
   0.073615 20683.476022
   0.075215 20318.508253
   0.076815 19952.538031
   0.078416 19585.869661
   0.080016 19218.802535
   0.081616 18851.630765
   0.083217 18484.642824
   0.084817 18118.121204
   0.086417 17752.342097
   0.088018 17387.575096
   0.089618 17024.082905
   0.091218 16662.121086
   0.092819 16301.937803
   0.094419 15943.773611
   0.096019 15587.861242
   0.097620 15234.425425
   0.099220 14883.682725
   0.100820 14535.841390
   0.102420 14191.101236
   0.104021 13849.653535
   0.105621 13511.680932
   0.107221 13177.357378
   0.108822 12846.848079
   0.110422 12520.309471
   0.112022 12197.889203
   0.113623 11879.726143
   0.115223 11565.950404
   0.116823 11256.683380
   0.118424 10952.037799
   0.120024 10652.117796
   0.121624 10357.018997
   0.123225 10066.828615
   0.124825  9781.625569
   0.126425  9501.480600
   0.128026  9226.456416
   0.129626  8956.607838
   0.131226  8691.981956
   0.132827  8432.618306
   0.134427  8178.549043
   0.136027  7929.799128
   0.137628  7686.386529
   0.139228  7448.322418
   0.140828  7215.611384
   0.142428  6988.251644
   0.144029  6766.235268
   0.145629  6549.548397
   0.147229  6338.171479
   0.148830  6132.079492
   0.150430  5931.242183
   0.152030  5735.624303
   0.153631  5545.185841
   0.155231  5359.882263
   0.156831  5179.664749
   0.158432  5004.480431
   0.160032  4834.272624
   0.161632  4668.981066
   0.163233  4508.542146
   0.164833  4352.889135
   0.166433  4201.952411
   0.168034  4055.659684
   0.169634  3913.936216
   0.171234  3776.705031
   0.172835  3643.887135
   0.174435  3515.401712
   0.176035  3391.166334
   0.177636  3271.097149
   0.179236  3155.109079
   0.180836  3043.115998
   0.182436  2935.030913
   0.184037  2830.766139
   0.185637  2730.233462
   0.187237  2633.344301
   0.188838  2540.009860
   0.190438  2450.141278
   0.192038  2363.649768
   0.193639  2280.446749
   0.195239  2200.443979
   0.196839  2123.553671
   0.198440  2049.688611
   0.200040  1978.762262
   0.201640  1910.688871
   0.203241  1845.383560
   0.204841  1782.762416
   0.206441  1722.742576
   0.208042  1665.242302
   0.209642  1610.181051
   0.211242  1557.479541
   0.212843  1507.059811
   0.214443  1458.845276
   0.216043  1412.760771
   0.217644  1368.732599
   0.219244  1326.688568
   0.220844  1286.558022
   0.222444  1248.271875
   0.224045  1211.762628
   0.225645  1176.964398
   0.227245  1143.812924
   0.228846  1112.245588
   0.230446  1082.201416
   0.232046  1053.621086
   0.233647  1026.446931
   0.235247  1000.622932
   0.236847   976.094718
   0.238448   952.809553
   0.240048   930.716331
   0.241648   909.765560
   0.243249   889.909345
   0.244849   871.101376
   0.246449   853.296902
   0.248050   836.452715
   0.249650   820.527124
   0.251250   805.479933
   0.252851   791.272413
   0.254451   777.867275
   0.256051   765.228646
   0.257652   753.322035
   0.259252   742.114304
   0.260852   731.573641
   0.262452   721.669526
   0.264053   712.372697
   0.265653   703.655126
   0.267253   695.489976
   0.268854   687.851578
   0.270454   680.715394
   0.272054   674.057982
   0.273655   667.856970
   0.275255   662.091018
   0.276855   656.739788
   0.278456   651.783911
   0.280056   647.204959
   0.281656   642.985408
   0.283257   639.108609
   0.284857   635.558762
   0.286457   632.320881
   0.288058   629.380764
   0.289658   626.724970
   0.291258   624.340784
   0.292859   622.216195
   0.294459   620.339865
   0.296059   618.701104
   0.297660   617.289845
   0.299260   616.096620
   0.300860   615.112530
   0.302460   614.329231
   0.304061   613.738902
   0.305661   613.334228
   0.307261   613.108376
   0.308862   613.054977
   0.310462   613.168103
   0.312062   613.442250
   0.313663   613.872316
   0.315263   614.453588
   0.316863   615.181721
   0.318464   616.052720
   0.320064   617.062928
   0.321664   618.209010
   0.323265   619.487935
   0.324865   620.896965
   0.326465   622.433639
   0.328066   624.095762
   0.329666   625.881392
   0.331266   627.788830
   0.332867   629.816603
   0.334467   631.963460
   0.336067   634.228357
   0.337668   636.610449
   0.339268   639.109082
   0.340868   641.723781
   0.342468   644.454244
   0.344069   647.300333
   0.345669   650.262065
   0.347269   653.339608
   0.348870   656.533273
   0.350470   659.843505
   0.352070   663.270879
   0.353671   666.816096
   0.355271   670.479971
   0.356871   674.263437
   0.358472   678.167531
   0.360072   682.193397
   0.361672   686.342275
   0.363273   690.615501
   0.364873   695.014503
   0.366473   699.540794
   0.368074   704.195972
   0.369674   708.981715
   0.371274   713.899778
   0.372875   718.951991
   0.374475   724.140254
   0.376075   729.466537
   0.377676   734.932875
   0.379276   740.541369
   0.380876   746.294179
   0.382476   752.193526
   0.384077   758.241688
   0.385677   764.441000
   0.387277   770.793849
   0.388878   777.302676
   0.390478   783.969969
   0.392078   790.798270
   0.393679   797.790164
   0.395279   804.948285
   0.396879   812.275309
   0.398480   819.773959
   0.400080   827.446996
   0.401680   835.297225
   0.403281   843.327489
   0.404881   851.540671
   0.406481   859.939691
   0.408082   868.527504
   0.409682   877.307102
   0.411282   886.281511
   0.412883   895.453791
   0.414483   904.827034
   0.416083   914.404361
   0.417684   924.188927
   0.419284   934.183914
   0.420884   944.392535
   0.422484   954.818027
   0.424085   965.463655
   0.425685   976.332712
   0.427285   987.428512
   0.428886   998.754394
   0.430486  1010.313720
   0.432086  1022.109873
   0.433687  1034.146258
   0.435287  1046.426297
   0.436887  1058.953434
   0.438488  1071.731127
   0.440088  1084.762853
   0.441688  1098.052103
   0.443289  1111.602384
   0.444889  1125.417213
   0.446489  1139.500123
   0.448090  1153.854654
   0.449690  1168.484359
   0.451290  1183.392797
   0.452891  1198.583537
   0.454491  1214.060151
   0.456091  1229.826218
   0.457692  1245.885319
   0.459292  1262.241038
   0.460892  1278.896961
   0.462492  1295.856671
   0.464093  1313.123751
   0.465693  1330.701779
   0.467293  1348.594331
   0.468894  1366.804974
   0.470494  1385.337269
   0.472094  1404.194768
   0.473695  1423.381011
   0.475295  1442.899527
   0.476895  1462.753830
   0.478496  1482.947421
   0.480096  1503.483780
   0.481696  1524.366373
   0.483297  1545.598643
   0.484897  1567.184011
   0.486497  1589.125876
   0.488098  1611.427609
   0.489698  1634.092557
   0.491298  1657.124036
   0.492899  1680.525333
   0.494499  1704.299701
   0.496099  1728.450359
   0.497700  1752.980491
   0.499300  1777.893244
   0.500900  1803.191722
   0.502501  1828.878992
   0.504101  1854.958073
   0.505701  1881.431942
   0.507301  1908.303529
   0.508902  1935.575713
   0.510502  1963.251323
   0.512102  1991.333137
   0.513703  2019.823875
   0.515303  2048.726205
   0.516903  2078.042733
   0.518504  2107.776006
   0.520104  2137.928509
   0.521704  2168.502665
   0.523305  2199.500828
   0.524905  2230.925287
   0.526505  2262.778261
   0.528106  2295.061898
   0.529706  2327.778272
   0.531306  2360.929385
   0.532907  2394.517161
   0.534507  2428.543447
   0.536107  2463.010009
   0.537708  2497.918534
   0.539308  2533.270626
   0.540908  2569.067804
   0.542509  2605.311501
   0.544109  2642.003066
   0.545709  2679.143756
   0.547309  2716.734743
   0.548910  2754.777103
   0.550510  2793.271825
   0.552110  2832.219803
   0.553711  2871.621836
   0.555311  2911.478632
   0.556911  2951.790801
   0.558512  2992.558857
   0.560112  3033.783217
   0.561712  3075.464203
   0.563313  3117.602037
   0.564913  3160.196845
   0.566513  3203.248655
   0.568114  3246.757397
   0.569714  3290.722902
   0.571314  3335.144907
   0.572915  3380.023048
   0.574515  3425.356870
   0.576115  3471.145817
   0.577716  3517.389244
   0.579316  3564.086409
   0.580916  3611.236481
   0.582517  3658.838536
   0.584117  3706.891563
   0.585717  3755.394467
   0.587317  3804.346064
   0.588918  3853.745093
   0.590518  3903.590211
   0.592118  3953.879999
   0.593719  4004.612969
   0.595319  4055.787558
   0.596919  4107.402143
   0.598520  4159.455036
   0.600120  4211.944493
   0.601720  4264.868719
   0.603321  4318.225870
   0.604921  4372.014061
   0.606521  4426.231371
   0.608122  4480.875848
   0.609722  4535.945516
   0.611322  4591.438384
   0.612923  4647.352449
   0.614523  4703.685707
   0.616123  4760.436158
   0.617724  4817.601817
   0.619324  4875.180723
   0.620924  4933.170945
   0.622525  4991.570594
   0.624125  5050.377832
   0.625725  5109.590884
   0.627325  5169.208047
   0.628926  5229.227703
   0.630526  5289.648331
   0.632126  5350.468515
   0.633727  5411.686965
   0.635327  5473.302523
   0.636927  5535.314179
   0.638528  5597.721087
   0.640128  5660.522578
   0.641728  5723.718176
   0.643329  5787.307612
   0.644929  5851.290843
   0.646529  5915.668067
   0.648130  5980.439740
   0.649730  6045.606594
   0.651330  6111.169655
   0.652931  6177.130264
   0.654531  6243.490090
   0.656131  6310.251157
   0.657732  6377.415859
   0.659332  6444.986980
   0.660932  6512.967720
   0.662533  6581.361708
   0.664133  6650.173032
   0.665733  6719.406256
   0.667333  6789.066442
   0.668934  6859.159175
   0.670534  6929.690585
   0.672134  7000.667367
   0.673735  7072.096811
   0.675335  7143.986818
   0.676935  7216.345930
   0.678536  7289.183350
   0.680136  7362.508966
   0.681736  7436.333377
   0.683337  7510.667917
   0.684937  7585.524676
   0.686537  7660.916526
   0.688138  7736.857145
   0.689738  7813.361041
   0.691338  7890.443573
   0.692939  7968.120977
   0.694539  8046.410385
   0.696139  8125.329851
   0.697740  8204.898371
   0.699340  8285.135905
   0.700940  8366.063397
   0.702541  8447.702795
   0.704141  8530.077071
   0.705741  8613.210239
   0.707341  8697.127373
   0.708942  8781.854625
   0.710542  8867.419235
   0.712142  8953.849553
   0.713743  9041.175048
   0.715343  9129.426321
   0.716943  9218.635115
   0.718544  9308.834327
   0.720144  9400.058010
   0.721744  9492.341387
   0.723345  9585.720848
   0.724945  9680.233957
   0.726545  9775.919453
   0.728146  9872.817246
   0.729746  9970.968417
   0.731346 10070.415210
   0.732947 10171.201029
   0.734547 10273.370420
   0.736147 10376.969071
   0.737748 10482.043785
   0.739348 10588.642474
   0.740948 10696.814132
   0.742549 10806.608815
   0.744149 10918.077621
   0.745749 11031.272654
   0.747349 11146.247001
   0.748950 11263.054695
   0.750550 11381.750680
   0.752150 11502.390774
   0.753751 11625.031622
   0.755351 11749.730658
   0.756951 11876.546049
   0.758552 12005.536651
   0.760152 12136.761951
   0.761752 12270.282009
   0.763353 12406.157402
   0.764953 12544.449154
   0.766553 12685.218677
   0.768154 12828.527693
   0.769754 12974.438170
   0.771354 13123.012237
   0.772955 13274.312114
   0.774555 13428.400025
   0.776155 13585.338114
   0.777756 13745.188361
   0.779356 13908.012487
   0.780956 14073.871868
   0.782557 14242.827431
   0.784157 14414.939565
   0.785757 14590.268015
   0.787357 14768.871785
   0.788958 14950.809028
   0.790558 15136.136945
   0.792158 15324.911674
   0.793759 15517.188182
   0.795359 15713.020151
   0.796959 15912.459872
   0.798560 16115.558124
   0.800160 16322.364064
   0.801760 16532.925113
   0.803361 16747.286835
   0.804961 16965.492828
   0.806561 17187.584601
   0.808162 17413.601463
   0.809762 17643.580407
   0.811362 17877.555993
   0.812963 18115.560233
   0.814563 18357.622483
   0.816163 18603.769325
   0.817764 18854.024461
   0.819364 19108.408605
   0.820964 19366.939372
   0.822565 19629.631180
   0.824165 19896.495144
   0.825765 20167.538983
   0.827365 20442.766917
   0.828966 20722.179582
   0.830566 21005.773938
   0.832166 21293.543188
   0.833767 21585.476691
   0.835367 21881.559895
   0.836967 22181.774258
   0.838568 22486.097186
   0.840168 22794.501971
   0.841768 23106.957733
   0.843369 23423.429372
   0.844969 23743.877519
   0.846569 24068.258504
   0.848170 24396.524316
   0.849770 24728.622579
   0.851370 25064.496535
   0.852971 25404.085025
   0.854571 25747.322484
   0.856171 26094.138941
   0.857772 26444.460029
   0.859372 26798.206991
   0.860972 27155.296707
   0.862573 27515.641722
   0.864173 27879.150277
   0.865773 28245.726354
   0.867373 28615.269726
   0.868974 28987.676010
   0.870574 29362.836736
   0.872174 29740.639416
   0.873775 30120.967619
   0.875375 30503.701062
   0.876975 30888.715696
   0.878576 31275.883809
   0.880176 31665.074130
   0.881776 32056.151940
   0.883377 32448.979191
   0.884977 32843.414632
   0.886577 33239.313938
   0.888178 33636.529845
   0.889778 34034.912293
   0.891378 34434.308573
   0.892979 34834.563480
   0.894579 35235.519465
   0.896179 35637.016804
   0.897780 36038.893754
   0.899380 36440.986730
   0.900980 36843.130473
   0.902581 37245.158225
   0.904181 37646.901913
   0.905781 38048.192322
   0.907381 38448.859287
   0.908982 38848.731867
   0.910582 39247.638543
   0.912182 39645.407395
   0.913783 40041.866296
   0.915383 40436.843096
   0.916983 40830.165813
   0.918584 41221.662816
   0.920184 41611.163015
   0.921784 41998.496046
   0.923385 42383.492449
   0.924985 42765.983854
   0.926585 43145.803159
   0.928186 43522.784704
   0.929786 43896.764443
   0.931386 44267.580118
   0.932987 44635.071418
   0.934587 44999.080143
   0.936187 45359.450362
   0.937788 45716.028560
   0.939388 46068.663792
   0.940988 46417.207819
   0.942589 46761.515243
   0.944189 47101.443643
   0.945789 47436.853693
   0.947389 47767.609281
   0.948990 48093.577625
   0.950590 48414.629371
   0.952190 48730.638694
   0.953791 49041.483391
   0.955391 49347.044960
   0.956991 49647.208683
   0.958592 49941.863692
   0.960192 50230.903031
   0.961792 50514.223717
   0.963393 50791.726779
   0.964993 51063.317309
   0.966593 51328.904488
   0.968194 51588.401618
   0.969794 51841.726138
   0.971394 52088.799639
   0.972995 52329.547869
   0.974595 52563.900731
   0.976195 52791.792278
   0.977796 53013.160697
   0.979396 53227.948290
   0.980996 53436.101447
   0.982597 53637.570614
   0.984197 53832.310255
   0.985797 54020.278811
   0.987397 54201.438649
   0.988998 54375.756011
   0.990598 54543.200955
   0.992198 54703.747293
   0.993799 54857.372526
   0.995399 55004.057771
   0.996999 55143.787693
   0.998600 55276.550422
   1.000200 55402.337480
   1.001800 55521.143692
   1.003401 55632.967108
   1.005001 55737.808914
   1.006601 55835.673341
   1.008202 55926.567582
   1.009802 56010.501698
   1.011402 56087.488525
   1.013003 56157.543587
   1.014603 56220.685001
   1.016203 56276.933385
   1.017804 56326.311770
   1.019404 56368.845505
   1.021004 56404.562171
   1.022605 56433.491488
   1.024205 56455.665233
   1.025805 56471.117147
   1.027405 56479.882860
   1.029006 56481.999799
   1.030606 56477.507116
   1.032206 56466.445605
   1.033807 56448.857629
   1.035407 56424.787045
   1.037007 56394.279140
   1.038608 56357.380554
   1.040208 56314.139223
   1.041808 56264.604316
   1.043409 56208.826174
   1.045009 56146.856258
   1.046609 56078.747093
   1.048210 56004.552221
   1.049810 55924.326155
   1.051410 55838.124334
   1.053011 55746.003087
   1.054611 55648.019590
   1.056211 55544.231836
   1.057812 55434.698604
   1.059412 55319.479427
   1.061012 55198.634572
   1.062613 55072.225010
   1.064213 54940.312402
   1.065813 54802.959078
   1.067413 54660.228018
   1.069014 54512.182845
   1.070614 54358.887808
   1.072214 54200.407773
   1.073815 54036.808217
   1.075415 53868.155217
   1.077015 53694.515451
   1.078616 53515.956185
   1.080216 53332.545281
   1.081816 53144.351183
   1.083417 52951.442924
   1.085017 52753.890122
   1.086617 52551.762980
   1.088218 52345.132281
   1.089818 52134.069397
   1.091418 51918.646278
   1.093019 51698.935459
   1.094619 51475.010056
   1.096219 51246.943760
   1.097820 51014.810844
   1.099420 50778.686150
   1.101020 50538.645091
   1.102621 50294.763642
   1.104221 50047.118337
   1.105821 49795.786257
   1.107421 49540.845024
   1.109022 49282.372789
   1.110622 49020.448222
   1.112222 48755.150493
   1.113823 48486.559264
   1.115423 48214.754666
   1.117023 47939.817283
   1.118624 47661.828132
   1.120224 47380.868639
   1.121824 47097.020616
   1.123425 46810.366238
   1.125025 46520.988010
   1.126625 46228.968743
   1.128226 45934.391521
   1.129826 45637.339670
   1.131426 45337.896724
   1.133027 45036.146389
   1.134627 44732.172507
   1.136227 44426.059017
   1.137828 44117.889918
   1.139428 43807.749227
   1.141028 43495.720937
   1.142629 43181.888977
   1.144229 42866.337166
   1.145829 42549.149172
   1.147429 42230.408464
   1.149030 41910.198272
   1.150630 41588.601536
   1.152230 41265.700864
   1.153831 40941.578486
   1.155431 40616.316209
   1.157031 40289.995368
   1.158632 39962.696784
   1.160232 39634.500721
   1.161832 39305.486837
   1.163433 38975.734144
   1.165033 38645.320965
   1.166633 38314.324890
   1.168234 37982.822739
   1.169834 37650.890519
   1.171434 37318.603390
   1.173035 36986.035624
   1.174635 36653.260570
   1.176235 36320.350625
   1.177836 35987.377196
   1.179436 35654.410676
   1.181036 35321.520408
   1.182637 34988.774667
   1.184237 34656.240630
   1.185837 34323.984354
   1.187437 33992.070759
   1.189038 33660.563607
   1.190638 33329.525488
   1.192238 32999.017805
   1.193839 32669.100763
   1.195439 32339.833360
   1.197039 32011.273382
   1.198640 31683.477395
   1.200240 31356.500744
   1.201840 31030.397555
   1.203441 30705.220734
   1.205041 30381.021974
   1.206641 30057.851761
   1.208242 29735.759379
   1.209842 29414.792928
   1.211442 29094.999329
   1.213043 28776.424343
   1.214643 28459.112588
   1.216243 28143.107554
   1.217844 27828.451626
   1.219444 27515.186103
   1.221044 27203.351225
   1.222645 26892.986192
   1.224245 26584.129196
   1.225845 26276.817445
   1.227445 25971.087190
   1.229046 25666.973758
   1.230646 25364.511578
   1.232246 25063.734216
   1.233847 24764.674406
   1.235447 24467.364080
   1.237047 24171.834403
   1.238648 23878.115805
   1.240248 23586.238015
   1.241848 23296.230097
   1.243449 23008.120476
   1.245049 22721.936983
   1.246649 22437.706875
   1.248250 22155.456881
   1.249850 21875.213223
   1.251450 21597.001657
   1.253051 21320.847498
   1.254651 21046.775654
   1.256251 20774.810654
   1.257852 20504.976679
   1.259452 20237.297587
   1.261052 19971.796943
   1.262653 19708.498040
   1.264253 19447.423928
   1.265853 19188.597436
   1.267453 18932.041191
   1.269054 18677.777640
   1.270654 18425.829070
   1.272254 18176.217624
   1.273855 17928.965315
   1.275455 17684.094043
   1.277055 17441.625606
   1.278656 17201.581710
   1.280256 16963.983980
   1.281856 16728.853964
   1.283457 16496.213142
   1.285057 16266.082929
   1.286657 16038.484675
   1.288258 15813.439668
   1.289858 15590.969132
   1.291458 15371.094224
   1.293059 15153.836027
   1.294659 14939.215547
   1.296259 14727.253706
   1.297860 14517.971327
   1.299460 14311.389128
   1.301060 14107.527708
   1.302661 13906.407533
   1.304261 13708.048918
   1.305861 13512.472016
   1.307461 13319.696795
   1.309062 13129.743020
   1.310662 12942.630236
   1.312262 12758.377739
   1.313863 12577.004562
   1.315463 12398.529445
   1.317063 12222.970816
   1.318664 12050.346760
   1.320264 11880.674998
   1.321864 11713.972858
   1.323465 11550.257249
   1.325065 11389.544634
   1.326665 11231.850998
   1.328266 11077.191827
   1.329866 10925.582071
   1.331466 10777.036121
   1.333067 10631.567780
   1.334667 10489.190232
   1.336267 10349.916011
   1.337868 10213.756981
   1.339468 10080.724299
   1.341068  9950.828390
   1.342669  9824.078920
   1.344269  9700.484769
   1.345869  9580.054005
   1.347469  9462.793854
   1.349070  9348.710679
   1.350670  9237.809955
   1.352270  9130.096244
   1.353871  9025.573172
   1.355471  8924.243407
   1.357071  8826.108639
   1.358672  8731.169561
   1.360272  8639.425848
   1.361872  8550.876141
   1.363473  8465.518029
   1.365073  8383.348035
   1.366673  8304.361604
   1.368274  8228.553087
   1.369874  8155.915731
   1.371474  8086.441669
   1.373075  8020.121914
   1.374675  7956.946348
   1.376275  7896.903722
   1.377876  7839.981644
   1.379476  7786.166585
   1.381076  7735.443872
   1.382677  7687.797693
   1.384277  7643.211093
   1.385877  7601.665986
   1.387477  7563.143153
   1.389078  7527.622250
   1.390678  7495.081820
   1.392278  7465.499297
   1.393879  7438.851024
   1.395479  7415.112258
   1.397079  7394.257189
   1.398680  7376.258956
   1.400280  7361.089660
   1.401880  7348.720387
   1.403481  7339.121223
   1.405081  7332.261280
   1.406681  7328.108714
   1.408282  7326.630751
   1.409882  7327.793711
   1.411482  7331.563034
   1.413083  7337.903310
   1.414683  7346.778301
   1.416283  7358.150975
   1.417884  7371.983537
   1.419484  7388.237456
   1.421084  7406.873502
   1.422685  7427.851774
   1.424285  7451.131738
   1.425885  7476.672259
   1.427485  7504.431636
   1.429086  7534.367642
   1.430686  7566.437553
   1.432286  7600.598192
   1.433887  7636.805960
   1.435487  7675.016879
   1.437087  7715.186626
   1.438688  7757.270576
   1.440288  7801.223832
   1.441888  7847.001273
   1.443489  7894.557585
   1.445089  7943.847305
   1.446689  7994.824856
   1.448290  8047.444585
   1.449890  8101.660805
   1.451490  8157.427827
   1.453091  8214.700002
   1.454691  8273.431759
   1.456291  8333.577636
   1.457892  8395.092320
   1.459492  8457.930684
   1.461092  8522.047817
   1.462693  8587.399063
   1.464293  8653.940051
   1.465893  8721.626731
   1.467493  8790.415403
   1.469094  8860.262747
   1.470694  8931.125858
   1.472294  9002.962268
   1.473895  9075.729981
   1.475495  9149.387493
   1.477095  9223.893822
   1.478696  9299.208531
   1.480296  9375.291752
   1.481896  9452.104206
   1.483497  9529.607225
   1.485097  9607.762772
   1.486697  9686.533457
   1.488298  9765.882555
   1.489898  9845.774020
   1.491498  9926.172501
   1.493099 10007.043351
   1.494699 10088.352639
   1.496299 10170.067162
   1.497900 10252.154448
   1.499500 10334.582766
   1.501100 10417.321130
   1.502701 10500.339302
   1.504301 10583.607792
   1.505901 10667.097862
   1.507502 10750.781522
   1.509102 10834.631528
   1.510702 10918.621379
   1.512302 11002.725310
   1.513903 11086.918284
   1.515503 11171.175988
   1.517103 11255.474819
   1.518704 11339.791872
   1.520304 11424.104932
   1.521904 11508.392458
   1.523505 11592.633567
   1.525105 11676.808017
   1.526705 11760.896193
   1.528306 11844.879086
   1.529906 11928.738273
   1.531506 12012.455899
   1.533107 12096.014651
   1.534707 12179.397738
   1.536307 12262.588870
   1.537908 12345.572227
   1.539508 12428.332440
   1.541108 12510.854563
   1.542709 12593.124045
   1.544309 12675.126706
   1.545909 12756.848706
   1.547510 12838.276522
   1.549110 12919.396914
   1.550710 13000.196898
   1.552310 13080.663720
   1.553911 13160.784823
   1.555511 13240.547821
   1.557111 13319.940467
   1.558712 13398.950625
   1.560312 13477.566242
   1.561912 13555.775315
   1.563513 13633.565869
   1.565113 13710.925921
   1.566713 13787.843459
   1.568314 13864.306408
   1.569914 13940.302608
   1.571514 14015.819786
   1.573115 14090.845529
   1.574715 14165.367260
   1.576315 14239.372212
   1.577916 14312.847409
   1.579516 14385.779639
   1.581116 14458.155433
   1.582717 14529.961045
   1.584317 14601.182435
   1.585917 14671.805246
   1.587518 14741.814791
   1.589118 14811.196033
   1.590718 14879.933574
   1.592318 14948.011639
   1.593919 15015.414063
   1.595519 15082.124285
   1.597119 15148.125334
   1.598720 15213.399821
   1.600320 15277.929936
   1.601920 15341.697441
   1.603521 15404.683666
   1.605121 15466.869506
   1.606721 15528.235424
   1.608322 15588.761450
   1.609922 15648.427183
   1.611522 15707.211796
   1.613123 15765.094042
   1.614723 15822.052261
   1.616323 15878.064388
   1.617924 15933.107965
   1.619524 15987.160150
   1.621124 16040.197734
   1.622725 16092.197154
   1.624325 16143.134509
   1.625925 16192.985576
   1.627526 16241.725835
   1.629126 16289.330481
   1.630726 16335.774454
   1.632326 16381.032456
   1.633927 16425.078979
   1.635527 16467.888328
   1.637127 16509.434650
   1.638728 16549.691960
   1.640328 16588.634170
   1.641928 16626.235119
   1.643529 16662.468605
   1.645129 16697.308415
   1.646729 16730.728358
   1.648330 16762.702298
   1.649930 16793.204190
   1.651530 16822.208110
   1.653131 16849.688295
   1.654731 16875.619175
   1.656331 16899.975412
   1.657932 16922.731933
   1.659532 16943.863971
   1.661132 16963.347097
   1.662733 16981.157262
   1.664333 16997.270829
   1.665933 17011.664616
   1.667534 17024.315928
   1.669134 17035.202594
   1.670734 17044.303009
   1.672334 17051.596165
   1.673935 17057.061688
   1.675535 17060.679877
   1.677135 17062.431733
   1.678736 17062.299001
   1.680336 17060.264198
   1.681936 17056.310648
   1.683537 17050.422516
   1.685137 17042.584837
   1.686737 17032.783550
   1.688338 17021.005524
   1.689938 17007.238590
   1.691538 16991.471568
   1.693139 16973.694291
   1.694739 16953.897636
   1.696339 16932.073541
   1.697940 16908.215036
   1.699540 16882.316258
   1.701140 16854.372475
   1.702741 16824.380104
   1.704341 16792.336730
   1.705941 16758.241118
   1.707542 16722.093235
   1.709142 16683.894254
   1.710742 16643.646574
   1.712342 16601.353825
   1.713943 16557.020879
   1.715543 16510.653855
   1.717143 16462.260127
   1.718744 16411.848324
   1.720344 16359.428338
   1.721944 16305.011318
   1.723545 16248.609673
   1.725145 16190.237068
   1.726745 16129.908420
   1.728346 16067.639893
   1.729946 16003.448888
   1.731546 15937.354037
   1.733147 15869.375190
   1.734747 15799.533406
   1.736347 15727.850933
   1.737948 15654.351202
   1.739548 15579.058802
   1.741148 15501.999467
   1.742749 15423.200053
   1.744349 15342.688522
   1.745949 15260.493913
   1.747550 15176.646327
   1.749150 15091.176895
   1.750750 15004.117753
   1.752350 14915.502020
   1.753951 14825.363765
   1.755551 14733.737977
   1.757151 14640.660540
   1.758752 14546.168195
   1.760352 14450.298512
   1.761952 14353.089857
   1.763553 14254.581354
   1.765153 14154.812855
   1.766753 14053.824900
   1.768354 13951.658686
   1.769954 13848.356023
   1.771554 13743.959306
   1.773155 13638.511467
   1.774755 13532.055945
   1.776355 13424.636642
   1.777956 13316.297887
   1.779556 13207.084396
   1.781156 13097.041231
   1.782757 12986.213761
   1.784357 12874.647625
   1.785957 12762.388686
   1.787558 12649.483000
   1.789158 12535.976766
   1.790758 12421.916296
   1.792358 12307.347970
   1.793959 12192.318196
   1.795559 12076.873376
   1.797159 11961.059862
   1.798760 11844.923923
   1.800360 11728.511702
   1.801960 11611.869182
   1.803561 11495.042148
   1.805161 11378.076152
   1.806761 11261.016475
   1.808362 11143.908094
   1.809962 11026.795647
   1.811562 10909.723400
   1.813163 10792.735212
   1.814763 10675.874506
   1.816363 10559.184235
   1.817964 10442.706854
   1.819564 10326.484287
   1.821164 10210.557905
   1.822765 10094.968489
   1.824365  9979.756211
   1.825965  9864.960606
   1.827566  9750.620547
   1.829166  9636.774219
   1.830766  9523.459100
   1.832366  9410.711939
   1.833967  9298.568732
   1.835567  9187.064707
   1.837167  9076.234301
   1.838768  8966.111148
   1.840368  8856.728059
   1.841968  8748.117006
   1.843569  8640.309111
   1.845169  8533.334633
   1.846769  8427.222954
   1.848370  8322.002569
   1.849970  8217.701077
   1.851570  8114.345172
   1.853171  8011.960636
   1.854771  7910.572332
   1.856371  7810.204199
   1.857972  7710.879248
   1.859572  7612.619556
   1.861172  7515.446269
   1.862773  7419.379596
   1.864373  7324.438811
   1.865973  7230.642254
   1.867574  7138.007329
   1.869174  7046.550513
   1.870774  6956.287353
   1.872374  6867.232474
   1.873975  6779.399585
   1.875575  6692.801481
   1.877175  6607.450052
   1.878776  6523.356295
   1.880376  6440.530312
   1.881976  6358.981331
   1.883577  6278.717708
   1.885177  6199.746939
   1.886777  6122.075672
   1.888378  6045.709721
   1.889978  5970.654075
   1.891578  5896.912910
   1.893179  5824.489607
   1.894779  5753.386764
   1.896379  5683.606208
   1.897980  5615.149014
   1.899580  5548.015516
   1.901180  5482.205329
   1.902781  5417.717358
   1.904381  5354.549819
   1.905981  5292.700254
   1.907582  5232.165551
   1.909182  5172.941957
   1.910782  5115.025097
   1.912382  5058.409993
   1.913983  5003.091083
   1.915583  4949.062234
   1.917183  4896.316767
   1.918784  4844.847468
   1.920384  4794.646615
   1.921984  4745.705986
   1.923585  4698.016888
   1.925185  4651.570168
   1.926785  4606.356233
   1.928386  4562.365072
   1.929986  4519.586270
   1.931586  4478.009027
   1.933187  4437.622179
   1.934787  4398.414212
   1.936387  4360.373283
   1.937988  4323.487236
   1.939588  4287.743621
   1.941188  4253.129708
   1.942789  4219.632510
   1.944389  4187.238793
   1.945989  4155.935097
   1.947590  4125.707755
   1.949190  4096.542900
   1.950790  4068.426490
   1.952390  4041.344320
   1.953991  4015.282036
   1.955591  3990.225153
   1.957191  3966.159068
   1.958792  3943.069074
   1.960392  3920.940373
   1.961992  3899.758095
   1.963593  3879.507304
   1.965193  3860.173018
   1.966793  3841.740214
   1.968394  3824.193848
   1.969994  3807.518864
   1.971594  3791.700203
   1.973195  3776.722816
   1.974795  3762.571678
   1.976395  3749.231793
   1.977996  3736.688210
   1.979596  3724.926025
   1.981196  3713.930399
   1.982797  3703.686561
   1.984397  3694.179820
   1.985997  3685.395570
   1.987598  3677.319303
   1.989198  3669.936609
   1.990798  3663.233192
   1.992398  3657.194870
   1.993999  3651.807585
   1.995599  3647.057408
   1.997199  3642.930545
   1.998800  3639.413343
   2.000400  3636.492293
   2.002000  3634.154040
   2.003601  3632.385380
   2.005201  3631.173272
   2.006801  3630.504836
   2.008402  3630.367360
   2.010002  3630.748301
   2.011602  3631.635291
   2.013203  3633.016136
   2.014803  3634.878823
   2.016403  3637.211518
   2.018004  3640.002569
   2.019604  3643.240510
   2.021204  3646.914060
   2.022805  3651.012126
   2.024405  3655.523802
   2.026005  3660.438372
   2.027606  3665.745309
   2.029206  3671.434275
   2.030806  3677.495124
   2.032406  3683.917898
   2.034007  3690.692830
   2.035607  3697.810342
   2.037207  3705.261045
   2.038808  3713.035738
   2.040408  3721.125409
   2.042008  3729.521229
   2.043609  3738.214556
   2.045209  3747.196933
   2.046809  3756.460084
   2.048410  3765.995914
   2.050010  3775.796508
   2.051610  3785.854127
   2.053211  3796.161210
   2.054811  3806.710368
   2.056411  3817.494384
   2.058012  3828.506212
   2.059612  3839.738971
   2.061212  3851.185947
   2.062813  3862.840589
   2.064413  3874.696506
   2.066013  3886.747463
   2.067614  3898.987385
   2.069214  3911.410346
   2.070814  3924.010573
   2.072414  3936.782439
   2.074015  3949.720463
   2.075615  3962.819308
   2.077215  3976.073775
   2.078816  3989.478804
   2.080416  4003.029467
   2.082016  4016.720970
   2.083617  4030.548649
   2.085217  4044.507962
   2.086817  4058.594496
   2.088418  4072.803956
   2.090018  4087.132165
   2.091618  4101.575062
   2.093219  4116.128701
   2.094819  4130.789244
   2.096419  4145.552960
   2.098020  4160.416224
   2.099620  4175.375513
   2.101220  4190.427405
   2.102821  4205.568573
   2.104421  4220.795786
   2.106021  4236.105904
   2.107622  4251.495877
   2.109222  4266.962744
   2.110822  4282.503626
   2.112422  4298.115728
   2.114023  4313.796333
   2.115623  4329.542806
   2.117223  4345.352583
   2.118824  4361.223175
   2.120424  4377.152164
   2.122024  4393.137202
   2.123625  4409.176005
   2.125225  4425.266356
   2.126825  4441.406100
   2.128426  4457.593143
   2.130026  4473.825449
   2.131626  4490.101039
   2.133227  4506.417989
   2.134827  4522.774429
   2.136427  4539.168539
   2.138028  4555.598550
   2.139628  4572.062739
   2.141228  4588.559430
   2.142829  4605.086994
   2.144429  4621.643841
   2.146029  4638.228426
   2.147630  4654.839241
   2.149230  4671.474820
   2.150830  4688.133731
   2.152430  4704.814579
   2.154031  4721.516005
   2.155631  4738.236681
   2.157231  4754.975310
   2.158832  4771.730630
   2.160432  4788.501403
   2.162032  4805.286424
   2.163633  4822.084513
   2.165233  4838.894515
   2.166833  4855.715303
   2.168434  4872.545771
   2.170034  4889.384840
   2.171634  4906.231448
   2.173235  4923.084558
   2.174835  4939.943153
   2.176435  4956.806234
   2.178036  4973.672822
   2.179636  4990.541954
   2.181236  5007.412687
   2.182837  5024.284091
   2.184437  5041.155254
   2.186037  5058.025279
   2.187638  5074.893281
   2.189238  5091.758391
   2.190838  5108.619753
   2.192438  5125.476520
   2.194039  5142.327862
   2.195639  5159.172957
   2.197239  5176.010993
   2.198840  5192.841172
   2.200440  5209.662703
   2.202040  5226.474804
   2.203641  5243.276703
   2.205241  5260.067638
   2.206841  5276.846851
   2.208442  5293.613596
   2.210042  5310.367132
   2.211642  5327.106725
   2.213243  5343.831648
   2.214843  5360.541179
   2.216443  5377.234606
   2.218044  5393.911218
   2.219644  5410.570311
   2.221244  5427.211188
   2.222845  5443.833154
   2.224445  5460.435521
   2.226045  5477.017603
   2.227646  5493.578721
   2.229246  5510.118197
   2.230846  5526.635360
   2.232446  5543.129540
   2.234047  5559.600072
   2.235647  5576.046293
   2.237247  5592.467543
   2.238848  5608.863168
   2.240448  5625.232512
   2.242048  5641.574926
   2.243649  5657.889760
   2.245249  5674.176369
   2.246849  5690.434110
   2.248450  5706.662342
   2.250050  5722.860424
   2.251650  5739.027721
   2.253251  5755.163596
   2.254851  5771.267417
   2.256451  5787.338552
   2.258052  5803.376372
   2.259652  5819.380249
   2.261252  5835.349556
   2.262853  5851.283668
   2.264453  5867.181962
   2.266053  5883.043817
   2.267654  5898.868613
   2.269254  5914.655730
   2.270854  5930.404550
   2.272454  5946.114459
   2.274055  5961.784842
   2.275655  5977.415084
   2.277255  5993.004574
   2.278856  6008.552701
   2.280456  6024.058856
   2.282056  6039.522430
   2.283657  6054.942818
   2.285257  6070.319412
   2.286857  6085.651609
   2.288458  6100.938806
   2.290058  6116.180401
   2.291658  6131.375793
   2.293259  6146.524384
   2.294859  6161.625575
   2.296459  6176.678771
   2.298060  6191.683376
   2.299660  6206.638796
   2.301260  6221.544439
   2.302861  6236.399713
   2.304461  6251.204030
   2.306061  6265.956801
   2.307662  6280.657439
   2.309262  6295.305359
   2.310862  6309.899978
   2.312462  6324.440713
   2.314063  6338.926984
   2.315663  6353.358211
   2.317263  6367.733818
   2.318864  6382.053228
   2.320464  6396.315868
   2.322064  6410.521164
   2.323665  6424.668547
   2.325265  6438.757447
   2.326865  6452.787298
   2.328466  6466.757534
   2.330066  6480.667593
   2.331666  6494.516911
   2.333267  6508.304931
   2.334867  6522.031094
   2.336467  6535.694845
   2.338068  6549.295631
   2.339668  6562.832900
   2.341268  6576.306103
   2.342869  6589.714693
   2.344469  6603.058125
   2.346069  6616.335857
   2.347670  6629.547347
   2.349270  6642.692059
   2.350870  6655.769456
   2.352470  6668.779006
   2.354071  6681.720176
   2.355671  6694.592440
   2.357271  6707.395270
   2.358872  6720.128145
   2.360472  6732.790542
   2.362072  6745.381944
   2.363673  6757.901835
   2.365273  6770.349704
   2.366873  6782.725039
   2.368474  6795.027333
   2.370074  6807.256082
   2.371674  6819.410786
   2.373275  6831.490944
   2.374875  6843.496062
   2.376475  6855.425646
   2.378076  6867.279207
   2.379676  6879.056259
   2.381276  6890.756318
   2.382877  6902.378904
   2.384477  6913.923539
   2.386077  6925.389750
   2.387678  6936.777066
   2.389278  6948.085020
   2.390878  6959.313147
   2.392478  6970.460987
   2.394079  6981.528083
   2.395679  6992.513981
   2.397279  7003.418231
   2.398880  7014.240386
   2.400480  7024.980003
   2.402080  7035.636642
   2.403681  7046.209868
   2.405281  7056.699248
   2.406881  7067.104354
   2.408482  7077.424761
   2.410082  7087.660048
   2.411682  7097.809798
   2.413283  7107.873598
   2.414883  7117.851039
   2.416483  7127.741715
   2.418084  7137.545226
   2.419684  7147.261172
   2.421284  7156.889163
   2.422885  7166.428807
   2.424485  7175.879721
   2.426085  7185.241523
   2.427686  7194.513836
   2.429286  7203.696289
   2.430886  7212.788513
   2.432486  7221.790143
   2.434087  7230.700822
   2.435687  7239.520193
   2.437287  7248.247906
   2.438888  7256.883614
   2.440488  7265.426975
   2.442088  7273.877653
   2.443689  7282.235315
   2.445289  7290.499631
   2.446889  7298.670280
   2.448490  7306.746941
   2.450090  7314.729300
   2.451690  7322.617048
   2.453291  7330.409880
   2.454891  7338.107496
   2.456491  7345.709600
   2.458092  7353.215903
   2.459692  7360.626117
   2.461292  7367.939963
   2.462893  7375.157165
   2.464493  7382.277452
   2.466093  7389.300557
   2.467694  7396.226220
   2.469294  7403.054186
   2.470894  7409.784202
   2.472494  7416.416024
   2.474095  7422.949410
   2.475695  7429.384125
   2.477295  7435.719939
   2.478896  7441.956626
   2.480496  7448.093967
   2.482096  7454.131746
   2.483697  7460.069754
   2.485297  7465.907788
   2.486897  7471.645647
   2.488498  7477.283139
   2.490098  7482.820075
   2.491698  7488.256272
   2.493299  7493.591553
   2.494899  7498.825747
   2.496499  7503.958685
   2.498100  7508.990208
   2.499700  7513.920160
   2.501300  7518.748390
   2.502901  7523.474754
   2.504501  7528.099113
   2.506101  7532.621333
   2.507702  7537.041287
   2.509302  7541.358853
   2.510902  7545.573913
   2.512503  7549.686358
   2.514103  7553.696080
   2.515703  7557.602982
   2.517303  7561.406969
   2.518904  7565.107952
   2.520504  7568.705850
   2.522104  7572.200585
   2.523705  7575.592086
   2.525305  7578.880289
   2.526905  7582.065134
   2.528506  7585.146567
   2.530106  7588.124540
   2.531706  7590.999012
   2.533307  7593.769947
   2.534907  7596.437313
   2.536507  7599.001087
   2.538108  7601.461250
   2.539708  7603.817790
   2.541308  7606.070699
   2.542909  7608.219977
   2.544509  7610.265629
   2.546109  7612.207666
   2.547710  7614.046105
   2.549310  7615.780969
   2.550910  7617.412286
   2.552511  7618.940091
   2.554111  7620.364426
   2.555711  7621.685337
   2.557311  7622.902876
   2.558912  7624.017102
   2.560512  7625.028080
   2.562112  7625.935881
   2.563713  7626.740581
   2.565313  7627.442263
   2.566913  7628.041015
   2.568514  7628.536933
   2.570114  7628.930116
   2.571714  7629.220672
   2.573315  7629.408713
   2.574915  7629.494359
   2.576515  7629.477732
   2.578116  7629.358966
   2.579716  7629.138195
   2.581316  7628.815563
   2.582917  7628.391219
   2.584517  7627.865317
   2.586117  7627.238018
   2.587718  7626.509489
   2.589318  7625.679903
   2.590918  7624.749438
   2.592519  7623.718279
   2.594119  7622.586617
   2.595719  7621.354648
   2.597319  7620.022575
   2.598920  7618.590608
   2.600520  7617.058959
   2.602120  7615.427850
   2.603721  7613.697508
   2.605321  7611.868164
   2.606921  7609.940057
   2.608522  7607.913431
   2.610122  7605.788537
   2.611722  7603.565630
   2.613323  7601.244972
   2.614923  7598.826831
   2.616523  7596.311481
   2.618124  7593.699201
   2.619724  7590.990277
   2.621324  7588.184999
   2.622925  7585.283665
   2.624525  7582.286577
   2.626125  7579.194044
   2.627726  7576.006380
   2.629326  7572.723905
   2.630926  7569.346945
   2.632527  7565.875831
   2.634127  7562.310901
   2.635727  7558.652497
   2.637327  7554.900968
   2.638928  7551.056668
   2.640528  7547.119957
   2.642128  7543.091199
   2.643729  7538.970767
   2.645329  7534.759036
   2.646929  7530.456389
   2.648530  7526.063212
   2.650130  7521.579900
   2.651730  7517.006850
   2.653331  7512.344467
   2.654931  7507.593160
   2.656531  7502.753344
   2.658132  7497.825439
   2.659732  7492.809870
   2.661332  7487.707069
   2.662933  7482.517471
   2.664533  7477.241518
   2.666133  7471.879657
   2.667734  7466.432339
   2.669334  7460.900021
   2.670934  7455.283167
   2.672535  7449.582242
   2.674135  7443.797721
   2.675735  7437.930079
   2.677335  7431.979801
   2.678936  7425.947372
   2.680536  7419.833287
   2.682136  7413.638042
   2.683737  7407.362141
   2.685337  7401.006089
   2.686937  7394.570401
   2.688538  7388.055592
   2.690138  7381.462184
   2.691738  7374.790704
   2.693339  7368.041684
   2.694939  7361.215658
   2.696539  7354.313169
   2.698140  7347.334760
   2.699740  7340.280983
   2.701340  7333.152390
   2.702941  7325.949542
   2.704541  7318.673000
   2.706141  7311.323333
   2.707742  7303.901114
   2.709342  7296.406918
   2.710942  7288.841325
   2.712543  7281.204922
   2.714143  7273.498298
   2.715743  7265.722045
   2.717343  7257.876761
   2.718944  7249.963048
   2.720544  7241.981511
   2.722144  7233.932761
   2.723745  7225.817411
   2.725345  7217.636078
   2.726945  7209.389384
   2.728546  7201.077955
   2.730146  7192.702419
   2.731746  7184.263409
   2.733347  7175.761562
   2.734947  7167.197518
   2.736547  7158.571921
   2.738148  7149.885419
   2.739748  7141.138661
   2.741348  7132.332304
   2.742949  7123.467004
   2.744549  7114.543422
   2.746149  7105.562224
   2.747750  7096.524077
   2.749350  7087.429652
   2.750950  7078.279623
   2.752551  7069.074668
   2.754151  7059.815467
   2.755751  7050.502703
   2.757351  7041.137063
   2.758952  7031.719237
   2.760552  7022.249916
   2.762152  7012.729796
   2.763753  7003.159574
   2.765353  6993.539951
   2.766953  6983.871630
   2.768554  6974.155317
   2.770154  6964.391721
   2.771754  6954.581552
   2.773355  6944.725524
   2.774955  6934.824352
   2.776555  6924.878755
   2.778156  6914.889452
   2.779756  6904.857167
   2.781356  6894.782624
   2.782957  6884.666551
   2.784557  6874.509675
   2.786157  6864.312729
   2.787758  6854.076445
   2.789358  6843.801557
   2.790958  6833.488803
   2.792559  6823.138921
   2.794159  6812.752651
   2.795759  6802.330735
   2.797359  6791.873917
   2.798960  6781.382941
   2.800560  6770.858553
   2.802160  6760.301503
   2.803761  6749.712538
   2.805361  6739.092410
   2.806961  6728.441871
   2.808562  6717.761672
   2.810162  6707.052570
   2.811762  6696.315318
   2.813363  6685.550673
   2.814963  6674.759392
   2.816563  6663.942234
   2.818164  6653.099956
   2.819764  6642.233320
   2.821364  6631.343085
   2.822965  6620.430012
   2.824565  6609.494862
   2.826165  6598.538399
   2.827766  6587.561384
   2.829366  6576.564581
   2.830966  6565.548752
   2.832567  6554.514662
   2.834167  6543.463074
   2.835767  6532.394752
   2.837367  6521.310460
   2.838968  6510.210962
   2.840568  6499.097023
   2.842168  6487.969405
   2.843769  6476.828873
   2.845369  6465.676190
   2.846969  6454.512119
   2.848570  6443.337424
   2.850170  6432.152866
   2.851770  6420.959208
   2.853371  6409.757211
   2.854971  6398.547635
   2.856571  6387.331241
   2.858172  6376.108788
   2.859772  6364.881034
   2.861372  6353.648738
   2.862973  6342.412656
   2.864573  6331.173543
   2.866173  6319.932154
   2.867774  6308.689243
   2.869374  6297.445562
   2.870974  6286.201863
   2.872575  6274.958894
   2.874175  6263.717404
   2.875775  6252.478141
   2.877375  6241.241849
   2.878976  6230.009273
   2.880576  6218.781154
   2.882176  6207.558234
   2.883777  6196.341250
   2.885377  6185.130940
   2.886977  6173.928039
   2.888578  6162.733279
   2.890178  6151.547392
   2.891778  6140.371107
   2.893379  6129.205150
   2.894979  6118.050246
   2.896579  6106.907117
   2.898180  6095.776483
   2.899780  6084.659061
   2.901380  6073.555568
   2.902981  6062.466714
   2.904581  6051.393210
   2.906181  6040.335764
   2.907782  6029.295079
   2.909382  6018.271858
   2.910982  6007.266800
   2.912583  5996.280600
   2.914183  5985.313951
   2.915783  5974.367544
   2.917383  5963.442065
   2.918984  5952.538199
   2.920584  5941.656625
   2.922184  5930.798021
   2.923785  5919.963061
   2.925385  5909.152415
   2.926985  5898.366750
   2.928586  5887.606730
   2.930186  5876.873016
   2.931786  5866.166262
   2.933387  5855.487122
   2.934987  5844.836244
   2.936587  5834.214275
   2.938188  5823.621854
   2.939788  5813.059619
   2.941388  5802.528203
   2.942989  5792.028235
   2.944589  5781.560341
   2.946189  5771.125141
   2.947790  5760.723252
   2.949390  5750.355287
   2.950990  5740.021852
   2.952591  5729.723553
   2.954191  5719.460988
   2.955791  5709.234752
   2.957391  5699.045434
   2.958992  5688.893622
   2.960592  5678.779894
   2.962192  5668.704828
   2.963793  5658.668995
   2.965393  5648.672961
   2.966993  5638.717287
   2.968594  5628.802532
   2.970194  5618.929245
   2.971794  5609.097974
   2.973395  5599.309260
   2.974995  5589.563640
   2.976595  5579.861645
   2.978196  5570.203801
   2.979796  5560.590628
   2.981396  5551.022642
   2.982997  5541.500353
   2.984597  5532.024264
   2.986197  5522.594876
   2.987798  5513.212681
   2.989398  5503.878167
   2.990998  5494.591817
   2.992599  5485.354107
   2.994199  5476.165507
   2.995799  5467.026484
   2.997399  5457.937495
   2.999000  5448.898995
   3.000600  5439.911430
   3.002200  5430.975243
   3.003801  5422.090868
   3.005401  5413.258735
   3.007001  5404.479268
   3.008602  5395.752884
   3.010202  5387.079994
   3.011802  5378.461003
   3.013403  5369.896309
   3.015003  5361.386305
   3.016603  5352.931377
   3.018204  5344.531904
   3.019804  5336.188261
   3.021404  5327.900814
   3.023005  5319.669923
   3.024605  5311.495943
   3.026205  5303.379221
   3.027806  5295.320097
   3.029406  5287.318907
   3.031006  5279.375977
   3.032607  5271.491628
   3.034207  5263.666176
   3.035807  5255.899927
   3.037407  5248.193182
   3.039008  5240.546236
   3.040608  5232.959375
   3.042208  5225.432879
   3.043809  5217.967023
   3.045409  5210.562073
   3.047009  5203.218289
   3.048610  5195.935922
   3.050210  5188.715219
   3.051810  5181.556419
   3.053411  5174.459754
   3.055011  5167.425447
   3.056611  5160.453716
   3.058212  5153.544773
   3.059812  5146.698820
   3.061412  5139.916053
   3.063013  5133.196663
   3.064613  5126.540829
   3.066213  5119.948728
   3.067814  5113.420527
   3.069414  5106.956385
   3.071014  5100.556457
   3.072615  5094.220887
   3.074215  5087.949815
   3.075815  5081.743372
   3.077415  5075.601681
   3.079016  5069.524859
   3.080616  5063.513016
   3.082216  5057.566253
   3.083817  5051.684665
   3.085417  5045.868340
   3.087017  5040.117357
   3.088618  5034.431789
   3.090218  5028.811701
   3.091818  5023.257151
   3.093419  5017.768189
   3.095019  5012.344858
   3.096619  5006.987195
   3.098220  5001.695227
   3.099820  4996.468975
   3.101420  4991.308453
   3.103021  4986.213667
   3.104621  4981.184615
   3.106221  4976.221289
   3.107822  4971.323673
   3.109422  4966.491742
   3.111022  4961.725467
   3.112623  4957.024809
   3.114223  4952.389723
   3.115823  4947.820155
   3.117423  4943.316044
   3.119024  4938.877324
   3.120624  4934.503920
   3.122224  4930.195748
   3.123825  4925.952719
   3.125425  4921.774736
   3.127025  4917.661695
   3.128626  4913.613483
   3.130226  4909.629983
   3.131826  4905.711068
   3.133427  4901.856604
   3.135027  4898.066451
   3.136627  4894.340461
   3.138228  4890.678478
   3.139828  4887.080341
   3.141428  4883.545880
   3.143029  4880.074919
   3.144629  4876.667273
   3.146229  4873.322753
   3.147830  4870.041160
   3.149430  4866.822289
   3.151030  4863.665928
   3.152631  4860.571859
   3.154231  4857.539855
   3.155831  4854.569683
   3.157431  4851.661105
   3.159032  4848.813873
   3.160632  4846.027733
   3.162232  4843.302425
   3.163833  4840.637683
   3.165433  4838.033231
   3.167033  4835.488790
   3.168634  4833.004072
   3.170234  4830.578783
   3.171834  4828.212622
   3.173435  4825.905281
   3.175035  4823.656448
   3.176635  4821.465802
   3.178236  4819.333015
   3.179836  4817.257754
   3.181436  4815.239680
   3.183037  4813.278447
   3.184637  4811.373701
   3.186237  4809.525085
   3.187838  4807.732233
   3.189438  4805.994774
   3.191038  4804.312331
   3.192639  4802.684521
   3.194239  4801.110953
   3.195839  4799.591232
   3.197439  4798.124957
   3.199040  4796.711721
   3.200640  4795.351109
   3.202240  4794.042703
   3.203841  4792.786078
   3.205441  4791.580804
   3.207041  4790.426444
   3.208642  4789.322555
   3.210242  4788.268692
   3.211842  4787.264400
   3.213443  4786.309221
   3.215043  4785.402692
   3.216643  4784.544342
   3.218244  4783.733698
   3.219844  4782.970281
   3.221444  4782.253604
   3.223045  4781.583178
   3.224645  4780.958508
   3.226245  4780.379094
   3.227846  4779.844431
   3.229446  4779.354008
   3.231046  4778.907312
   3.232647  4778.503823
   3.234247  4778.143017
   3.235847  4777.824365
   3.237447  4777.547333
   3.239048  4777.311384
   3.240648  4777.115977
   3.242248  4776.960563
   3.243849  4776.844592
   3.245449  4776.767510
   3.247049  4776.728757
   3.248650  4776.727769
   3.250250  4776.763980
   3.251850  4776.836817
   3.253451  4776.945707
   3.255051  4777.090069
   3.256651  4777.269321
   3.258252  4777.482877
   3.259852  4777.730146
   3.261452  4778.010536
   3.263053  4778.323449
   3.264653  4778.668285
   3.266253  4779.044440
   3.267854  4779.451307
   3.269454  4779.888277
   3.271054  4780.354736
   3.272655  4780.850068
   3.274255  4781.373655
   3.275855  4781.924874
   3.277455  4782.503101
   3.279056  4783.107708
   3.280656  4783.738065
   3.282256  4784.393541
   3.283857  4785.073500
   3.285457  4785.777305
   3.287057  4786.504316
   3.288658  4787.253892
   3.290258  4788.025389
   3.291858  4788.818160
   3.293459  4789.631557
   3.295059  4790.464932
   3.296659  4791.317632
   3.298260  4792.189003
   3.299860  4793.078391
   3.301460  4793.985139
   3.303061  4794.908589
   3.304661  4795.848082
   3.306261  4796.802956
   3.307862  4797.772550
   3.309462  4798.756200
   3.311062  4799.753242
   3.312663  4800.763011
   3.314263  4801.784841
   3.315863  4802.818064
   3.317463  4803.862013
   3.319064  4804.916019
   3.320664  4805.979414
   3.322264  4807.051527
   3.323865  4808.131690
   3.325465  4809.219233
   3.327065  4810.313483
   3.328666  4811.413772
   3.330266  4812.519428
   3.331866  4813.629782
   3.333467  4814.744161
   3.335067  4815.861897
   3.336667  4816.982319
   3.338268  4818.104758
   3.339868  4819.228544
   3.341468  4820.353009
   3.343069  4821.477485
   3.344669  4822.601304
   3.346269  4823.723800
   3.347870  4824.844307
   3.349470  4825.962161
   3.351070  4827.076697
   3.352671  4828.187254
   3.354271  4829.293170
   3.355871  4830.393784
   3.357471  4831.488438
   3.359072  4832.576476
   3.360672  4833.657241
   3.362272  4834.730078
   3.363873  4835.794337
   3.365473  4836.849366
   3.367073  4837.894516
   3.368674  4838.929141
   3.370274  4839.952597
   3.371874  4840.964240
   3.373475  4841.963430
   3.375075  4842.949529
   3.376675  4843.921902
   3.378276  4844.879914
   3.379876  4845.822936
   3.381476  4846.750339
   3.383077  4847.661498
   3.384677  4848.555790
   3.386277  4849.432595
   3.387878  4850.291295
   3.389478  4851.131279
   3.391078  4851.951933
   3.392679  4852.752651
   3.394279  4853.532828
   3.395879  4854.291863
   3.397479  4855.029158
   3.399080  4855.744119
   3.400680  4856.436155
   3.402280  4857.104679
   3.403881  4857.749107
   3.405481  4858.368859
   3.407081  4858.963360
   3.408682  4859.532038
   3.410282  4860.074324
   3.411882  4860.589655
   3.413483  4861.077470
   3.415083  4861.537215
   3.416683  4861.968337
   3.418284  4862.370289
   3.419884  4862.742529
   3.421484  4863.084519
   3.423085  4863.395724
   3.424685  4863.675616
   3.426285  4863.923670
   3.427886  4864.139367
   3.429486  4864.322192
   3.431086  4864.471634
   3.432687  4864.587188
   3.434287  4864.668355
   3.435887  4864.714639
   3.437487  4864.725551
   3.439088  4864.700604
   3.440688  4864.639321
   3.442288  4864.541226
   3.443889  4864.405851
   3.445489  4864.232732
   3.447089  4864.021411
   3.448690  4863.771436
   3.450290  4863.482360
   3.451890  4863.153740
   3.453491  4862.785143
   3.455091  4862.376137
   3.456691  4861.926299
   3.458292  4861.435210
   3.459892  4860.902458
   3.461492  4860.327638
   3.463093  4859.710347
   3.464693  4859.050192
   3.466293  4858.346785
   3.467894  4857.599744
   3.469494  4856.808692
   3.471094  4855.973260
   3.472695  4855.093084
   3.474295  4854.167808
   3.475895  4853.197080
   3.477495  4852.180556
   3.479096  4851.117899
   3.480696  4850.008776
   3.482296  4848.852862
   3.483897  4847.649841
   3.485497  4846.399399
   3.487097  4845.101231
   3.488698  4843.755039
   3.490298  4842.360532
   3.491898  4840.917423
   3.493499  4839.425436
   3.495099  4837.884298
   3.496699  4836.293744
   3.498300  4834.653517
   3.499900  4832.963366
   3.501500  4831.223047
   3.503101  4829.432323
   3.504701  4827.590963
   3.506301  4825.698745
   3.507902  4823.755452
   3.509502  4821.760875
   3.511102  4819.714812
   3.512703  4817.617069
   3.514303  4815.467457
   3.515903  4813.265795
   3.517504  4811.011911
   3.519104  4808.705636
   3.520704  4806.346813
   3.522304  4803.935288
   3.523905  4801.470918
   3.525505  4798.953563
   3.527105  4796.383094
   3.528706  4793.759387
   3.530306  4791.082327
   3.531906  4788.351803
   3.533507  4785.567715
   3.535107  4782.729968
   3.536707  4779.838475
   3.538308  4776.893156
   3.539908  4773.893939
   3.541508  4770.840758
   3.543109  4767.733556
   3.544709  4764.572280
   3.546309  4761.356889
   3.547910  4758.087345
   3.549510  4754.763620
   3.551110  4751.385692
   3.552711  4747.953546
   3.554311  4744.467175
   3.555911  4740.926579
   3.557512  4737.331766
   3.559112  4733.682749
   3.560712  4729.979551
   3.562312  4726.222201
   3.563913  4722.410733
   3.565513  4718.545192
   3.567113  4714.625629
   3.568714  4710.652099
   3.570314  4706.624669
   3.571914  4702.543410
   3.573515  4698.408401
   3.575115  4694.219727
   3.576715  4689.977482
   3.578316  4685.681766
   3.579916  4681.332685
   3.581516  4676.930355
   3.583117  4672.474895
   3.584717  4667.966434
   3.586317  4663.405106
   3.587918  4658.791054
   3.589518  4654.124425
   3.591118  4649.405376
   3.592719  4644.634068
   3.594319  4639.810670
   3.595919  4634.935359
   3.597520  4630.008316
   3.599120  4625.029731
   3.600720  4619.999799
   3.602320  4614.918722
   3.603921  4609.786710
   3.605521  4604.603978
   3.607121  4599.370748
   3.608722  4594.087248
   3.610322  4588.753712
   3.611922  4583.370383
   3.613523  4577.937507
   3.615123  4572.455338
   3.616723  4566.924136
   3.618324  4561.344167
   3.619924  4555.715704
   3.621524  4550.039025
   3.623125  4544.314414
   3.624725  4538.542162
   3.626325  4532.722565
   3.627926  4526.855926
   3.629526  4520.942553
   3.631126  4514.982760
   3.632727  4508.976866
   3.634327  4502.925197
   3.635927  4496.828085
   3.637528  4490.685866
   3.639128  4484.498882
   3.640728  4478.267482
   3.642328  4471.992017
   3.643929  4465.672848
   3.645529  4459.310338
   3.647129  4452.904856
   3.648730  4446.456776
   3.650330  4439.966479
   3.651930  4433.434348
   3.653531  4426.860773
   3.655131  4420.246150
   3.656731  4413.590876
   3.658332  4406.895358
   3.659932  4400.160004
   3.661532  4393.385228
   3.663133  4386.571447
   3.664733  4379.719087
   3.666333  4372.828573
   3.667934  4365.900338
   3.669534  4358.934819
   3.671134  4351.932456
   3.672735  4344.893694
   3.674335  4337.818983
   3.675935  4330.708775
   3.677536  4323.563528
   3.679136  4316.383703
   3.680736  4309.169766
   3.682336  4301.922185
   3.683937  4294.641434
   3.685537  4287.327988
   3.687137  4279.982328
   3.688738  4272.604938
   3.690338  4265.196304
   3.691938  4257.756918
   3.693539  4250.287272
   3.695139  4242.787865
   3.696739  4235.259195
   3.698340  4227.701768
   3.699940  4220.116088
   3.701540  4212.502666
   3.703141  4204.862013
   3.704741  4197.194645
   3.706341  4189.501079
   3.707942  4181.781835
   3.709542  4174.037438
   3.711142  4166.268411
   3.712743  4158.475283
   3.714343  4150.658585
   3.715943  4142.818848
   3.717544  4134.956607
   3.719144  4127.072399
   3.720744  4119.166762
   3.722344  4111.240238
   3.723945  4103.293369
   3.725545  4095.326699
   3.727145  4087.340774
   3.728746  4079.336142
   3.730346  4071.313353
   3.731946  4063.272956
   3.733547  4055.215504
   3.735147  4047.141551
   3.736747  4039.051651
   3.738348  4030.946360
   3.739948  4022.826235
   3.741548  4014.691833
   3.743149  4006.543714
   3.744749  3998.382437
   3.746349  3990.208563
   3.747950  3982.022652
   3.749550  3973.825266
   3.751150  3965.616967
   3.752751  3957.398319
   3.754351  3949.169883
   3.755951  3940.932224
   3.757552  3932.685904
   3.759152  3924.431487
   3.760752  3916.169538
   3.762352  3907.900618
   3.763953  3899.625293
   3.765553  3891.344124
   3.767153  3883.057676
   3.768754  3874.766510
   3.770354  3866.471189
   3.771954  3858.172275
   3.773555  3849.870329
   3.775155  3841.565910
   3.776755  3833.259580
   3.778356  3824.951897
   3.779956  3816.643419
   3.781556  3808.334702
   3.783157  3800.026304
   3.784757  3791.718778
   3.786357  3783.412679
   3.787958  3775.108559
   3.789558  3766.806969
   3.791158  3758.508458
   3.792759  3750.213576
   3.794359  3741.922868
   3.795959  3733.636879
   3.797560  3725.356153
   3.799160  3717.081232
   3.800760  3708.812654
   3.802360  3700.550957
   3.803961  3692.296678
   3.805561  3684.050350
   3.807161  3675.812503
   3.808762  3667.583669
   3.810362  3659.364372
   3.811962  3651.155139
   3.813563  3642.956491
   3.815163  3634.768948
   3.816763  3626.593027
   3.818364  3618.429243
   3.819964  3610.278107
   3.821564  3602.140129
   3.823165  3594.015815
   3.824765  3585.905668
   3.826365  3577.810189
   3.827966  3569.729875
   3.829566  3561.665221
   3.831166  3553.616717
   3.832767  3545.584852
   3.834367  3537.570111
   3.835967  3529.572974
   3.837568  3521.593921
   3.839168  3513.633425
   3.840768  3505.691958
   3.842368  3497.769987
   3.843969  3489.867976
   3.845569  3481.986385
   3.847169  3474.125671
   3.848770  3466.286287
   3.850370  3458.468681
   3.851970  3450.673298
   3.853571  3442.900580
   3.855171  3435.150963
   3.856771  3427.424880
   3.858372  3419.722761
   3.859972  3412.045029
   3.861572  3404.392106
   3.863173  3396.764407
   3.864773  3389.162345
   3.866373  3381.586327
   3.867974  3374.036756
   3.869574  3366.514030
   3.871174  3359.018545
   3.872775  3351.550689
   3.874375  3344.110848
   3.875975  3336.699402
   3.877576  3329.316726
   3.879176  3321.963193
   3.880776  3314.639167
   3.882376  3307.345012
   3.883977  3300.081082
   3.885577  3292.847731
   3.887177  3285.645304
   3.888778  3278.474144
   3.890378  3271.334588
   3.891978  3264.226968
   3.893579  3257.151609
   3.895179  3250.108835
   3.896779  3243.098962
   3.898380  3236.122300
   3.899980  3229.179157
   3.901580  3222.269834
   3.903181  3215.394626
   3.904781  3208.553823
   3.906381  3201.747712
   3.907982  3194.976571
   3.909582  3188.240676
   3.911182  3181.540295
   3.912783  3174.875692
   3.914383  3168.247125
   3.915983  3161.654847
   3.917584  3155.099106
   3.919184  3148.580144
   3.920784  3142.098195
   3.922384  3135.653492
   3.923985  3129.246260
   3.925585  3122.876717
   3.927185  3116.545079
   3.928786  3110.251553
   3.930386  3103.996342
   3.931986  3097.779643
   3.933587  3091.601648
   3.935187  3085.462542
   3.936787  3079.362506
   3.938388  3073.301714
   3.939988  3067.280334
   3.941588  3061.298529
   3.943189  3055.356458
   3.944789  3049.454271
   3.946389  3043.592113
   3.947990  3037.770126
   3.949590  3031.988443
   3.951190  3026.247192
   3.952791  3020.546497
   3.954391  3014.886475
   3.955991  3009.267236
   3.957592  3003.688886
   3.959192  2998.151525
   3.960792  2992.655247
   3.962392  2987.200139
   3.963993  2981.786285
   3.965593  2976.413760
   3.967193  2971.082636
   3.968794  2965.792978
   3.970394  2960.544845
   3.971994  2955.338292
   3.973595  2950.173364
   3.975195  2945.050106
   3.976795  2939.968553
   3.978396  2934.928736
   3.979996  2929.930681
   3.981596  2924.974405
   3.983197  2920.059925
   3.984797  2915.187246
   3.986397  2910.356373
   3.987998  2905.567301
   3.989598  2900.820021
   3.991198  2896.114520
   3.992799  2891.450777
   3.994399  2886.828767
   3.995999  2882.248458
   3.997600  2877.709814
   3.999200  2873.212793
   4.000800  2868.757346
   4.002400  2864.343422
   4.004001  2859.970961
   4.005601  2855.639899
   4.007201  2851.350167
   4.008802  2847.101691
   4.010402  2842.894389
   4.012002  2838.728177
   4.013603  2834.602964
   4.015203  2830.518654
   4.016803  2826.475145
   4.018404  2822.472332
   4.020004  2818.510102
   4.021604  2814.588338
   4.023205  2810.706920
   4.024805  2806.865719
   4.026405  2803.064604
   4.028006  2799.303437
   4.029606  2795.582077
   4.031206  2791.900376
   4.032807  2788.258182
   4.034407  2784.655339
   4.036007  2781.091684
   4.037608  2777.567051
   4.039208  2774.081269
   4.040808  2770.634161
   4.042408  2767.225547
   4.044009  2763.855241
   4.045609  2760.523054
   4.047209  2757.228789
   4.048810  2753.972248
   4.050410  2750.753228
   4.052010  2747.571519
   4.053611  2744.426910
   4.055211  2741.319183
   4.056811  2738.248116
   4.058412  2735.213484
   4.060012  2732.215057
   4.061612  2729.252600
   4.063213  2726.325876
   4.064813  2723.434641
   4.066413  2720.578650
   4.068014  2717.757651
   4.069614  2714.971390
   4.071214  2712.219608
   4.072815  2709.502043
   4.074415  2706.818429
   4.076015  2704.168495
   4.077616  2701.551968
   4.079216  2698.968570
   4.080816  2696.418020
   4.082416  2693.900033
   4.084017  2691.414321
   4.085617  2688.960593
   4.087217  2686.538552
   4.088818  2684.147900
   4.090418  2681.788336
   4.092018  2679.459554
   4.093619  2677.161245
   4.095219  2674.893098
   4.096819  2672.654797
   4.098420  2670.446026
   4.100020  2668.266463
   4.101620  2666.115784
   4.103221  2663.993663
   4.104821  2661.899769
   4.106421  2659.833770
   4.108022  2657.795332
   4.109622  2655.784115
   4.111222  2653.799780
   4.112823  2651.841984
   4.114423  2649.910380
   4.116023  2648.004621
   4.117624  2646.124355
   4.119224  2644.269231
   4.120824  2642.438892
   4.122424  2640.632982
   4.124025  2638.851140
   4.125625  2637.093005
   4.127225  2635.358214
   4.128826  2633.646399
   4.130426  2631.957193
   4.132026  2630.290227
   4.133627  2628.645129
   4.135227  2627.021525
   4.136827  2625.419040
   4.138428  2623.837298
   4.140028  2622.275921
   4.141628  2620.734527
   4.143229  2619.212736
   4.144829  2617.710165
   4.146429  2616.226429
   4.148030  2614.761143
   4.149630  2613.313921
   4.151230  2611.884373
   4.152831  2610.472111
   4.154431  2609.076745
   4.156031  2607.697883
   4.157632  2606.335132
   4.159232  2604.988100
   4.160832  2603.656393
   4.162432  2602.339615
   4.164033  2601.037371
   4.165633  2599.749265
   4.167233  2598.474900
   4.168834  2597.213878
   4.170434  2595.965801
   4.172034  2594.730271
   4.173635  2593.506889
   4.175235  2592.295256
   4.176835  2591.094972
   4.178436  2589.905637
   4.180036  2588.726852
   4.181636  2587.558217
   4.183237  2586.399332
   4.184837  2585.249797
   4.186437  2584.109211
   4.188038  2582.977175
   4.189638  2581.853289
   4.191238  2580.737154
   4.192839  2579.628370
   4.194439  2578.526540
   4.196039  2577.431263
   4.197640  2576.342143
   4.199240  2575.258782
   4.200840  2574.180783
   4.202440  2573.107750
   4.204041  2572.039286
   4.205641  2570.974997
   4.207241  2569.914490
   4.208842  2568.857370
   4.210442  2567.803244
   4.212042  2566.751723
   4.213643  2565.702414
   4.215243  2564.654929
   4.216843  2563.608878
   4.218444  2562.563876
   4.220044  2561.519535
   4.221644  2560.475470
   4.223245  2559.431299
   4.224845  2558.386638
   4.226445  2557.341108
   4.228046  2556.294328
   4.229646  2555.245920
   4.231246  2554.195508
   4.232847  2553.142718
   4.234447  2552.087176
   4.236047  2551.028510
   4.237648  2549.966350
   4.239248  2548.900330
   4.240848  2547.830081
   4.242448  2546.755240
   4.244049  2545.675445
   4.245649  2544.590335
   4.247249  2543.499550
   4.248850  2542.402736
   4.250450  2541.299537
   4.252050  2540.189600
   4.253651  2539.072577
   4.255251  2537.948118
   4.256851  2536.815879
   4.258452  2535.675515
   4.260052  2534.526685
   4.261652  2533.369052
   4.263253  2532.202278
   4.264853  2531.026030
   4.266453  2529.839976
   4.268054  2528.643787
   4.269654  2527.437138
   4.271254  2526.219704
   4.272855  2524.991164
   4.274455  2523.751200
   4.276055  2522.499497
   4.277656  2521.235740
   4.279256  2519.959621
   4.280856  2518.670832
   4.282456  2517.369067
   4.284057  2516.054027
   4.285657  2514.725411
   4.287257  2513.382924
   4.288858  2512.026273
   4.290458  2510.655169
   4.292058  2509.269324
   4.293659  2507.868455
   4.295259  2506.452282
   4.296859  2505.020526
   4.298460  2503.572913
   4.300060  2502.109173
   4.301660  2500.629036
   4.303261  2499.132240
   4.304861  2497.618521
   4.306461  2496.087621
   4.308062  2494.539287
   4.309662  2492.973266
   4.311262  2491.389309
   4.312863  2489.787173
   4.314463  2488.166616
   4.316063  2486.527399
   4.317664  2484.869288
   4.319264  2483.192052
   4.320864  2481.495463
   4.322464  2479.779298
   4.324065  2478.043335
   4.325665  2476.287357
   4.327265  2474.511151
   4.328866  2472.714507
   4.330466  2470.897219
   4.332066  2469.059084
   4.333667  2467.199902
   4.335267  2465.319479
   4.336867  2463.417621
   4.338468  2461.494143
   4.340068  2459.548857
   4.341668  2457.581585
   4.343269  2455.592149
   4.344869  2453.580375
   4.346469  2451.546093
   4.348070  2449.489139
   4.349670  2447.409350
   4.351270  2445.306566
   4.352871  2443.180635
   4.354471  2441.031404
   4.356071  2438.858726
   4.357672  2436.662460
   4.359272  2434.442463
   4.360872  2432.198603
   4.362472  2429.930745
   4.364073  2427.638762
   4.365673  2425.322530
   4.367273  2422.981929
   4.368874  2420.616841
   4.370474  2418.227154
   4.372074  2415.812759
   4.373675  2413.373550
   4.375275  2410.909426
   4.376875  2408.420291
   4.378476  2405.906049
   4.380076  2403.366611
   4.381676  2400.801891
   4.383277  2398.211807
   4.384877  2395.596280
   4.386477  2392.955236
   4.388078  2390.288604
   4.389678  2387.596316
   4.391278  2384.878310
   4.392879  2382.134526
   4.394479  2379.364909
   4.396079  2376.569407
   4.397680  2373.747971
   4.399280  2370.900557
   4.400880  2368.027125
   4.402480  2365.127639
   4.404081  2362.202064
   4.405681  2359.250372
   4.407281  2356.272537
   4.408882  2353.268537
   4.410482  2350.238354
   4.412082  2347.181974
   4.413683  2344.099386
   4.415283  2340.990582
   4.416883  2337.855560
   4.418484  2334.694319
   4.420084  2331.506863
   4.421684  2328.293200
   4.423285  2325.053340
   4.424885  2321.787299
   4.426485  2318.495094
   4.428086  2315.176747
   4.429686  2311.832283
   4.431286  2308.461732
   4.432887  2305.065125
   4.434487  2301.642498
   4.436087  2298.193891
   4.437688  2294.719345
   4.439288  2291.218908
   4.440888  2287.692629
   4.442488  2284.140560
   4.444089  2280.562758
   4.445689  2276.959282
   4.447289  2273.330196
   4.448890  2269.675566
   4.450490  2265.995461
   4.452090  2262.289954
   4.453691  2258.559121
   4.455291  2254.803041
   4.456891  2251.021798
   4.458492  2247.215475
   4.460092  2243.384163
   4.461692  2239.527953
   4.463293  2235.646940
   4.464893  2231.741222
   4.466493  2227.810901
   4.468094  2223.856079
   4.469694  2219.876866
   4.471294  2215.873370
   4.472895  2211.845704
   4.474495  2207.793985
   4.476095  2203.718332
   4.477696  2199.618866
   4.479296  2195.495711
   4.480896  2191.348996
   4.482496  2187.178850
   4.484097  2182.985406
   4.485697  2178.768799
   4.487297  2174.529169
   4.488898  2170.266655
   4.490498  2165.981402
   4.492098  2161.673556
   4.493699  2157.343265
   4.495299  2152.990681
   4.496899  2148.615957
   4.498500  2144.219251
   4.500100  2139.800720
   4.501700  2135.360526
   4.503301  2130.898832
   4.504901  2126.415805
   4.506501  2121.911612
   4.508102  2117.386425
   4.509702  2112.840415
   4.511302  2108.273759
   4.512903  2103.686633
   4.514503  2099.079216
   4.516103  2094.451691
   4.517704  2089.804240
   4.519304  2085.137050
   4.520904  2080.450308
   4.522505  2075.744205
   4.524105  2071.018931
   4.525705  2066.274681
   4.527305  2061.511649
   4.528906  2056.730034
   4.530506  2051.930035
   4.532106  2047.111853
   4.533707  2042.275690
   4.535307  2037.421751
   4.536907  2032.550242
   4.538508  2027.661372
   4.540108  2022.755350
   4.541708  2017.832387
   4.543309  2012.892696
   4.544909  2007.936490
   4.546509  2002.963987
   4.548110  1997.975402
   4.549710  1992.970955
   4.551310  1987.950866
   4.552911  1982.915355
   4.554511  1977.864647
   4.556111  1972.798963
   4.557712  1967.718531
   4.559312  1962.623577
   4.560912  1957.514327
   4.562513  1952.391011
   4.564113  1947.253859
   4.565713  1942.103101
   4.567313  1936.938971
   4.568914  1931.761700
   4.570514  1926.571523
   4.572114  1921.368675
   4.573715  1916.153392
   4.575315  1910.925910
   4.576915  1905.686467
   4.578516  1900.435302
   4.580116  1895.172653
   4.581716  1889.898761
   4.583317  1884.613866
   4.584917  1879.318210
   4.586517  1874.012035
   4.588118  1868.695582
   4.589718  1863.369096
   4.591318  1858.032819
   4.592919  1852.686997
   4.594519  1847.331873
   4.596119  1841.967693
   4.597720  1836.594702
   4.599320  1831.213146
   4.600920  1825.823272
   4.602521  1820.425325
   4.604121  1815.019553
   4.605721  1809.606203
   4.607321  1804.185521
   4.608922  1798.757756
   4.610522  1793.323155
   4.612122  1787.881965
   4.613723  1782.434435
   4.615323  1776.980812
   4.616923  1771.521344
   4.618524  1766.056279
   4.620124  1760.585865
   4.621724  1755.110349
   4.623325  1749.629979
   4.624925  1744.145003
   4.626525  1738.655668
   4.628126  1733.162221
   4.629726  1727.664909
   4.631326  1722.163979
   4.632927  1716.659677
   4.634527  1711.152250
   4.636127  1705.641942
   4.637728  1700.129001
   4.639328  1694.613670
   4.640928  1689.096194
   4.642529  1683.576818
   4.644129  1678.055784
   4.645729  1672.533337
   4.647329  1667.009719
   4.648930  1661.485172
   4.650530  1655.959938
   4.652130  1650.434257
   4.653731  1644.908369
   4.655331  1639.382516
   4.656931  1633.856934
   4.658532  1628.331863
   4.660132  1622.807540
   4.661732  1617.284201
   4.663333  1611.762084
   4.664933  1606.241422
   4.666533  1600.722450
   4.668134  1595.205401
   4.669734  1589.690509
   4.671334  1584.178004
   4.672935  1578.668117
   4.674535  1573.161079
   4.676135  1567.657117
   4.677736  1562.156460
   4.679336  1556.659335
   4.680936  1551.165966
   4.682537  1545.676579
   4.684137  1540.191398
   4.685737  1534.710644
   4.687337  1529.234540
   4.688938  1523.763305
   4.690538  1518.297158
   4.692138  1512.836317
   4.693739  1507.380999
   4.695339  1501.931420
   4.696939  1496.487793
   4.698540  1491.050331
   4.700140  1485.619246
   4.701740  1480.194749
   4.703341  1474.777048
   4.704941  1469.366351
   4.706541  1463.962865
   4.708142  1458.566794
   4.709742  1453.178342
   4.711342  1447.797712
   4.712943  1442.425103
   4.714543  1437.060716
   4.716143  1431.704748
   4.717744  1426.357396
   4.719344  1421.018854
   4.720944  1415.689317
   4.722545  1410.368976
   4.724145  1405.058022
   4.725745  1399.756644
   4.727345  1394.465028
   4.728946  1389.183362
   4.730546  1383.911829
   4.732146  1378.650612
   4.733747  1373.399892
   4.735347  1368.159848
   4.736947  1362.930660
   4.738548  1357.712501
   4.740148  1352.505549
   4.741748  1347.309974
   4.743349  1342.125950
   4.744949  1336.953644
   4.746549  1331.793227
   4.748150  1326.644863
   4.749750  1321.508717
   4.751350  1316.384952
   4.752951  1311.273730
   4.754551  1306.175210
   4.756151  1301.089550
   4.757752  1296.016905
   4.759352  1290.957430
   4.760952  1285.911278
   4.762553  1280.878599
   4.764153  1275.859542
   4.765753  1270.854255
   4.767353  1265.862883
   4.768954  1260.885570
   4.770554  1255.922457
   4.772154  1250.973685
   4.773755  1246.039392
   4.775355  1241.119715
   4.776955  1236.214789
   4.778556  1231.324745
   4.780156  1226.449716
   4.781756  1221.589831
   4.783357  1216.745217
   4.784957  1211.916000
   4.786557  1207.102304
   4.788158  1202.304251
   4.789758  1197.521961
   4.791358  1192.755553
   4.792959  1188.005142
   4.794559  1183.270844
   4.796159  1178.552772
   4.797760  1173.851037
   4.799360  1169.165748
   4.800960  1164.497012
   4.802561  1159.844935
   4.804161  1155.209621
   4.805761  1150.591172
   4.807361  1145.989688
   4.808962  1141.405267
   4.810562  1136.838006
   4.812162  1132.287999
   4.813763  1127.755339
   4.815363  1123.240117
   4.816963  1118.742423
   4.818564  1114.262343
   4.820164  1109.799963
   4.821764  1105.355368
   4.823365  1100.928638
   4.824965  1096.519855
   4.826565  1092.129096
   4.828166  1087.756438
   4.829766  1083.401956
   4.831366  1079.065722
   4.832967  1074.747809
   4.834567  1070.448285
   4.836167  1066.167218
   4.837768  1061.904673
   4.839368  1057.660716
   4.840968  1053.435409
   4.842569  1049.228811
   4.844169  1045.040983
   4.845769  1040.871980
   4.847369  1036.721859
   4.848970  1032.590673
   4.850570  1028.478475
   4.852170  1024.385313
   4.853771  1020.311238
   4.855371  1016.256296
   4.856971  1012.220531
   4.858572  1008.203988
   4.860172  1004.206709
   4.861772  1000.228733
   4.863373   996.270098
   4.864973   992.330843
   4.866573   988.411001
   4.868174   984.510607
   4.869774   980.629693
   4.871374   976.768288
   4.872975   972.926422
   4.874575   969.104121
   4.876175   965.301411
   4.877776   961.518317
   4.879376   957.754860
   4.880976   954.011061
   4.882577   950.286939
   4.884177   946.582513
   4.885777   942.897798
   4.887377   939.232809
   4.888978   935.587560
   4.890578   931.962061
   4.892178   928.356323
   4.893779   924.770355
   4.895379   921.204164
   4.896979   917.657755
   4.898580   914.131134
   4.900180   910.624302
   4.901780   907.137261
   4.903381   903.670012
   4.904981   900.222553
   4.906581   896.794880
   4.908182   893.386991
   4.909782   889.998879
   4.911382   886.630537
   4.912983   883.281958
   4.914583   879.953132
   4.916183   876.644048
   4.917784   873.354693
   4.919384   870.085054
   4.920984   866.835117
   4.922585   863.604865
   4.924185   860.394281
   4.925785   857.203346
   4.927385   854.032041
   4.928986   850.880345
   4.930586   847.748234
   4.932186   844.635687
   4.933787   841.542678
   4.935387   838.469181
   4.936987   835.415169
   4.938588   832.380615
   4.940188   829.365488
   4.941788   826.369760
   4.943389   823.393397
   4.944989   820.436367
   4.946589   817.498637
   4.948190   814.580172
   4.949790   811.680936
   4.951390   808.800892
   4.952991   805.940002
   4.954591   803.098227
   4.956191   800.275528
   4.957792   797.471862
   4.959392   794.687189
   4.960992   791.921465
   4.962593   789.174647
   4.964193   786.446689
   4.965793   783.737545
   4.967393   781.047170
   4.968994   778.375515
   4.970594   775.722532
   4.972194   773.088172
   4.973795   770.472383
   4.975395   767.875116
   4.976995   765.296318
   4.978596   762.735936
   4.980196   760.193917
   4.981796   757.670206
   4.983397   755.164748
   4.984997   752.677487
   4.986597   750.208366
   4.988198   747.757328
   4.989798   745.324314
   4.991398   742.909266
   4.992999   740.512123
   4.994599   738.132825
   4.996199   735.771312
   4.997800   733.427520
   4.999400   731.101389
   5.001000   728.792854
   5.002601   726.501852
   5.004201   724.228318
   5.005801   721.972188
   5.007401   719.733396
   5.009002   717.511875
   5.010602   715.307559
   5.012202   713.120380
   5.013803   710.950271
   5.015403   708.797163
   5.017003   706.660986
   5.018604   704.541672
   5.020204   702.439151
   5.021804   700.353351
   5.023405   698.284202
   5.025005   696.231632
   5.026605   694.195570
   5.028206   692.175942
   5.029806   690.172676
   5.031406   688.185699
   5.033007   686.214937
   5.034607   684.260316
   5.036207   682.321762
   5.037808   680.399199
   5.039408   678.492552
   5.041008   676.601745
   5.042609   674.726704
   5.044209   672.867350
   5.045809   671.023609
   5.047409   669.195402
   5.049010   667.382652
   5.050610   665.585283
   5.052210   663.803215
   5.053811   662.036372
   5.055411   660.284674
   5.057011   658.548043
   5.058612   656.826400
   5.060212   655.119666
   5.061812   653.427761
   5.063413   651.750607
   5.065013   650.088122
   5.066613   648.440228
   5.068214   646.806845
   5.069814   645.187891
   5.071414   643.583286
   5.073015   641.992950
   5.074615   640.416803
   5.076215   638.854762
   5.077816   637.306747
   5.079416   635.772678
   5.081016   634.252471
   5.082617   632.746048
   5.084217   631.253325
   5.085817   629.774221
   5.087417   628.308655
   5.089018   626.856545
   5.090618   625.417809
   5.092218   623.992365
   5.093819   622.580133
   5.095419   621.181029
   5.097019   619.794972
   5.098620   618.421880
   5.100220   617.061671
   5.101820   615.714264
   5.103421   614.379576
   5.105021   613.057525
   5.106621   611.748031
   5.108222   610.451010
   5.109822   609.166381
   5.111422   607.894063
   5.113023   606.633973
   5.114623   605.386031
   5.116223   604.150155
   5.117824   602.926262
   5.119424   601.714273
   5.121024   600.514104
   5.122625   599.325677
   5.124225   598.148908
   5.125825   596.983718
   5.127425   595.830026
   5.129026   594.687750
   5.130626   593.556810
   5.132226   592.437126
   5.133827   591.328618
   5.135427   590.231204
   5.137027   589.144806
   5.138628   588.069343
   5.140228   587.004736
   5.141828   585.950905
   5.143429   584.907771
   5.145029   583.875254
   5.146629   582.853276
   5.148230   581.841758
   5.149830   580.840621
   5.151430   579.849788
   5.153031   578.869179
   5.154631   577.898716
   5.156231   576.938323
   5.157832   575.987921
   5.159432   575.047434
   5.161032   574.116784
   5.162633   573.195895
   5.164233   572.284689
   5.165833   571.383091
   5.167433   570.491024
   5.169034   569.608413
   5.170634   568.735182
   5.172234   567.871256
   5.173835   567.016560
   5.175435   566.171019
   5.177035   565.334558
   5.178636   564.507104
   5.180236   563.688583
   5.181836   562.878920
   5.183437   562.078042
   5.185037   561.285878
   5.186637   560.502353
   5.188238   559.727395
   5.189838   558.960932
   5.191438   558.202893
   5.193039   557.453205
   5.194639   556.711798
   5.196239   555.978601
   5.197840   555.253542
   5.199440   554.536553
   5.201040   553.827562
   5.202641   553.126501
   5.204241   552.433299
   5.205841   551.747889
   5.207441   551.070201
   5.209042   550.400167
   5.210642   549.737719
   5.212242   549.082790
   5.213843   548.435312
   5.215443   547.795218
   5.217043   547.162442
   5.218644   546.536918
   5.220244   545.918579
   5.221844   545.307361
   5.223445   544.703197
   5.225045   544.106024
   5.226645   543.515776
   5.228246   542.932390
   5.229846   542.355802
   5.231446   541.785948
   5.233047   541.222766
   5.234647   540.666192
   5.236247   540.116165
   5.237848   539.572622
   5.239448   539.035503
   5.241048   538.504745
   5.242649   537.980288
   5.244249   537.462071
   5.245849   536.950035
   5.247449   536.444120
   5.249050   535.944266
   5.250650   535.450414
   5.252250   534.962506
   5.253851   534.480484
   5.255451   534.004290
   5.257051   533.533865
   5.258652   533.069154
   5.260252   532.610099
   5.261852   532.156644
   5.263453   531.708733
   5.265053   531.266311
   5.266653   530.829322
   5.268254   530.397711
   5.269854   529.971424
   5.271454   529.550407
   5.273055   529.134606
   5.274655   528.723968
   5.276255   528.318440
   5.277856   527.917969
   5.279456   527.522503
   5.281056   527.131990
   5.282657   526.746379
   5.284257   526.365618
   5.285857   525.989657
   5.287457   525.618446
   5.289058   525.251935
   5.290658   524.890073
   5.292258   524.532812
   5.293859   524.180103
   5.295459   523.831898
   5.297059   523.488148
   5.298660   523.148806
   5.300260   522.813824
   5.301860   522.483155
   5.303461   522.156752
   5.305061   521.834571
   5.306661   521.516563
   5.308262   521.202685
   5.309862   520.892890
   5.311462   520.587134
   5.313063   520.285373
   5.314663   519.987563
   5.316263   519.693659
   5.317864   519.403618
   5.319464   519.117398
   5.321064   518.834956
   5.322665   518.556249
   5.324265   518.281236
   5.325865   518.009874
   5.327465   517.742124
   5.329066   517.477943
   5.330666   517.217292
   5.332266   516.960129
   5.333867   516.706417
   5.335467   516.456114
   5.337067   516.209181
   5.338668   515.965581
   5.340268   515.725274
   5.341868   515.488223
   5.343469   515.254389
   5.345069   515.023735
   5.346669   514.796225
   5.348270   514.571820
   5.349870   514.350486
   5.351470   514.132186
   5.353071   513.916883
   5.354671   513.704543
   5.356271   513.495131
   5.357872   513.288611
   5.359472   513.084949
   5.361072   512.884112
   5.362673   512.686065
   5.364273   512.490774
   5.365873   512.298207
   5.367473   512.108331
   5.369074   511.921113
   5.370674   511.736521
   5.372274   511.554523
   5.373875   511.375088
   5.375475   511.198183
   5.377075   511.023778
   5.378676   510.851843
   5.380276   510.682347
   5.381876   510.515259
   5.383477   510.350551
   5.385077   510.188192
   5.386677   510.028153
   5.388278   509.870405
   5.389878   509.714921
   5.391478   509.561670
   5.393079   509.410626
   5.394679   509.261761
   5.396279   509.115046
   5.397880   508.970455
   5.399480   508.827962
   5.401080   508.687538
   5.402681   508.549159
   5.404281   508.412797
   5.405881   508.278427
   5.407481   508.146023
   5.409082   508.015561
   5.410682   507.887014
   5.412282   507.760359
   5.413883   507.635571
   5.415483   507.512625
   5.417083   507.391498
   5.418684   507.272166
   5.420284   507.154606
   5.421884   507.038793
   5.423485   506.924706
   5.425085   506.812321
   5.426685   506.701617
   5.428286   506.592570
   5.429886   506.485159
   5.431486   506.379363
   5.433087   506.275159
   5.434687   506.172527
   5.436287   506.071445
   5.437888   505.971893
   5.439488   505.873849
   5.441088   505.777295
   5.442689   505.682210
   5.444289   505.588573
   5.445889   505.496366
   5.447489   505.405568
   5.449090   505.316161
   5.450690   505.228126
   5.452290   505.141444
   5.453891   505.056096
   5.455491   504.972064
   5.457091   504.889331
   5.458692   504.807877
   5.460292   504.727686
   5.461892   504.648739
   5.463493   504.571021
   5.465093   504.494513
   5.466693   504.419199
   5.468294   504.345062
   5.469894   504.272085
   5.471494   504.200253
   5.473095   504.129549
   5.474695   504.059957
   5.476295   503.991462
   5.477896   503.924049
   5.479496   503.857701
   5.481096   503.792404
   5.482697   503.728142
   5.484297   503.664902
   5.485897   503.602668
   5.487497   503.541426
   5.489098   503.481162
   5.490698   503.421862
   5.492298   503.363511
   5.493899   503.306097
   5.495499   503.249605
   5.497099   503.194023
   5.498700   503.139336
   5.500300   503.085533
   5.501900   503.032600
   5.503501   502.980524
   5.505101   502.929293
   5.506701   502.878895
   5.508302   502.829317
   5.509902   502.780547
   5.511502   502.732574
   5.513103   502.685385
   5.514703   502.638969
   5.516303   502.593314
   5.517904   502.548410
   5.519504   502.504244
   5.521104   502.460807
   5.522705   502.418086
   5.524305   502.376072
   5.525905   502.334754
   5.527506   502.294121
   5.529106   502.254162
   5.530706   502.214869
   5.532306   502.176230
   5.533907   502.138236
   5.535507   502.100877
   5.537107   502.064143
   5.538708   502.028025
   5.540308   501.992514
   5.541908   501.957599
   5.543509   501.923273
   5.545109   501.889526
   5.546709   501.856348
   5.548310   501.823732
   5.549910   501.791669
   5.551510   501.760149
   5.553111   501.729166
   5.554711   501.698709
   5.556311   501.668772
   5.557912   501.639345
   5.559512   501.610422
   5.561112   501.581994
   5.562713   501.554053
   5.564313   501.526593
   5.565913   501.499604
   5.567514   501.473080
   5.569114   501.447014
   5.570714   501.421398
   5.572314   501.396225
   5.573915   501.371488
   5.575515   501.347180
   5.577115   501.323295
   5.578716   501.299825
   5.580316   501.276764
   5.581916   501.254106
   5.583517   501.231843
   5.585117   501.209971
   5.586717   501.188481
   5.588318   501.167369
   5.589918   501.146627
   5.591518   501.126251
   5.593119   501.106234
   5.594719   501.086570
   5.596319   501.067254
   5.597920   501.048280
   5.599520   501.029642
   5.601120   501.011335
   5.602721   500.993353
   5.604321   500.975692
   5.605921   500.958345
   5.607522   500.941308
   5.609122   500.924575
   5.610722   500.908142
   5.612322   500.892004
   5.613923   500.876155
   5.615523   500.860592
   5.617123   500.845308
   5.618724   500.830300
   5.620324   500.815563
   5.621924   500.801092
   5.623525   500.786883
   5.625125   500.772931
   5.626725   500.759233
   5.628326   500.745784
   5.629926   500.732579
   5.631526   500.719615
   5.633127   500.706888
   5.634727   500.694393
   5.636327   500.682127
   5.637928   500.670086
   5.639528   500.658265
   5.641128   500.646662
   5.642729   500.635272
   5.644329   500.624092
   5.645929   500.613118
   5.647530   500.602346
   5.649130   500.591774
   5.650730   500.581398
   5.652330   500.571214
   5.653931   500.561219
   5.655531   500.551410
   5.657131   500.541783
   5.658732   500.532336
   5.660332   500.523065
   5.661932   500.513968
   5.663533   500.505040
   5.665133   500.496280
   5.666733   500.487684
   5.668334   500.479250
   5.669934   500.470974
   5.671534   500.462854
   5.673135   500.454887
   5.674735   500.447071
   5.676335   500.439402
   5.677936   500.431879
   5.679536   500.424498
   5.681136   500.417257
   5.682737   500.410153
   5.684337   500.403185
   5.685937   500.396349
   5.687538   500.389644
   5.689138   500.383066
   5.690738   500.376615
   5.692338   500.370286
   5.693939   500.364079
   5.695539   500.357991
   5.697139   500.352020
   5.698740   500.346164
   5.700340   500.340421
   5.701940   500.334788
   5.703541   500.329264
   5.705141   500.323847
   5.706741   500.318534
   5.708342   500.313324
   5.709942   500.308216
   5.711542   500.303206
   5.713143   500.298294
   5.714743   500.293478
   5.716343   500.288755
   5.717944   500.284124
   5.719544   500.279584
   5.721144   500.275132
   5.722745   500.270768
   5.724345   500.266489
   5.725945   500.262294
   5.727546   500.258181
   5.729146   500.254150
   5.730746   500.250197
   5.732346   500.246322
   5.733947   500.242524
   5.735547   500.238801
   5.737147   500.235151
   5.738748   500.231574
   5.740348   500.228067
   5.741948   500.224630
   5.743549   500.221261
   5.745149   500.217959
   5.746749   500.214723
   5.748350   500.211551
   5.749950   500.208443
   5.751550   500.205396
   5.753151   500.202411
   5.754751   500.199484
   5.756351   500.196617
   5.757952   500.193807
   5.759552   500.191053
   5.761152   500.188355
   5.762753   500.185711
   5.764353   500.183120
   5.765953   500.180581
   5.767554   500.178093
   5.769154   500.175656
   5.770754   500.173267
   5.772354   500.170927
   5.773955   500.168634
   5.775555   500.166388
   5.777155   500.164187
   5.778756   500.162031
   5.780356   500.159919
   5.781956   500.157849
   5.783557   500.155822
   5.785157   500.153836
   5.786757   500.151890
   5.788358   500.149984
   5.789958   500.148117
   5.791558   500.146288
   5.793159   500.144497
   5.794759   500.142742
   5.796359   500.141023
   5.797960   500.139339
   5.799560   500.137690
   5.801160   500.136075
   5.802761   500.134492
   5.804361   500.132943
   5.805961   500.131425
   5.807562   500.129938
   5.809162   500.128482
   5.810762   500.127056
   5.812362   500.125660
   5.813963   500.124292
   5.815563   500.122953
   5.817163   500.121641
   5.818764   500.120356
   5.820364   500.119098
   5.821964   500.117866
   5.823565   500.116660
   5.825165   500.115478
   5.826765   500.114321
   5.828366   500.113188
   5.829966   500.112079
   5.831566   500.110993
   5.833167   500.109929
   5.834767   500.108887
   5.836367   500.107867
   5.837968   500.106868
   5.839568   500.105890
   5.841168   500.104933
   5.842769   500.103995
   5.844369   500.103077
   5.845969   500.102178
   5.847570   500.101298
   5.849170   500.100436
   5.850770   500.099593
   5.852370   500.098766
   5.853971   500.097958
   5.855571   500.097166
   5.857171   500.096390
   5.858772   500.095631
   5.860372   500.094888
   5.861972   500.094160
   5.863573   500.093447
   5.865173   500.092750
   5.866773   500.092067
   5.868374   500.091398
   5.869974   500.090743
   5.871574   500.090102
   5.873175   500.089474
   5.874775   500.088860
   5.876375   500.088258
   5.877976   500.087669
   5.879576   500.087093
   5.881176   500.086528
   5.882777   500.085975
   5.884377   500.085434
   5.885977   500.084904
   5.887578   500.084385
   5.889178   500.083877
   5.890778   500.083380
   5.892378   500.082893
   5.893979   500.082416
   5.895579   500.081949
   5.897179   500.081492
   5.898780   500.081044
   5.900380   500.080606
   5.901980   500.080177
   5.903581   500.079756
   5.905181   500.079345
   5.906781   500.078942
   5.908382   500.078547
   5.909982   500.078161
   5.911582   500.077783
   5.913183   500.077412
   5.914783   500.077049
   5.916383   500.076694
   5.917984   500.076346
   5.919584   500.076005
   5.921184   500.075671
   5.922785   500.075344
   5.924385   500.075024
   5.925985   500.074711
   5.927586   500.074403
   5.929186   500.074103
   5.930786   500.073808
   5.932386   500.073519
   5.933987   500.073237
   5.935587   500.072960
   5.937187   500.072688
   5.938788   500.072422
   5.940388   500.072162
   5.941988   500.071907
   5.943589   500.071657
   5.945189   500.071412
   5.946789   500.071172
   5.948390   500.070936
   5.949990   500.070706
   5.951590   500.070480
   5.953191   500.070259
   5.954791   500.070042
   5.956391   500.069829
   5.957992   500.069621
   5.959592   500.069416
   5.961192   500.069216
   5.962793   500.069020
   5.964393   500.068827
   5.965993   500.068639
   5.967594   500.068454
   5.969194   500.068272
   5.970794   500.068094
   5.972394   500.067920
   5.973995   500.067749
   5.975595   500.067581
   5.977195   500.067416
   5.978796   500.067255
   5.980396   500.067097
   5.981996   500.066941
   5.983597   500.066789
   5.985197   500.066639
   5.986797   500.066493
   5.988398   500.066349
   5.989998   500.066207
   5.991598   500.066069
   5.993199   500.065932
   5.994799   500.065799
   5.996399   500.065667
   5.998000   500.065539
   5.999600   500.065412
   6.001200   500.065288
   6.002801   500.065166
   6.004401   500.065046
   6.006001   500.064928
   6.007602   500.064813
   6.009202   500.064699
   6.010802   500.064588
   6.012402   500.064478
   6.014003   500.064370
   6.015603   500.064264
   6.017203   500.064160
   6.018804   500.064058
   6.020404   500.063957
   6.022004   500.063858
   6.023605   500.063761
   6.025205   500.063665
   6.026805   500.063571
   6.028406   500.063479
   6.030006   500.063388
   6.031606   500.063298
   6.033207   500.063210
   6.034807   500.063123
   6.036407   500.063038
   6.038008   500.062954
   6.039608   500.062871
   6.041208   500.062789
   6.042809   500.062709
   6.044409   500.062630
   6.046009   500.062552
   6.047610   500.062476
   6.049210   500.062400
   6.050810   500.062326
   6.052410   500.062252
   6.054011   500.062180
   6.055611   500.062109
   6.057211   500.062038
   6.058812   500.061969
   6.060412   500.061901
   6.062012   500.061833
   6.063613   500.061767
   6.065213   500.061701
   6.066813   500.061636
   6.068414   500.061572
   6.070014   500.061509
   6.071614   500.061447
   6.073215   500.061386
   6.074815   500.061325
   6.076415   500.061265
   6.078016   500.061206
   6.079616   500.061147
   6.081216   500.061090
   6.082817   500.061033
   6.084417   500.060976
   6.086017   500.060920
   6.087618   500.060865
   6.089218   500.060811
   6.090818   500.060757
   6.092418   500.060704
   6.094019   500.060651
   6.095619   500.060599
   6.097219   500.060547
   6.098820   500.060496
   6.100420   500.060446
   6.102020   500.060396
   6.103621   500.060346
   6.105221   500.060297
   6.106821   500.060249
   6.108422   500.060201
   6.110022   500.060153
   6.111622   500.060106
   6.113223   500.060059
   6.114823   500.060013
   6.116423   500.059967
   6.118024   500.059922
   6.119624   500.059876
   6.121224   500.059832
   6.122825   500.059787
   6.124425   500.059744
   6.126025   500.059700
   6.127626   500.059657
   6.129226   500.059614
   6.130826   500.059571
   6.132426   500.059529
   6.134027   500.059487
   6.135627   500.059446
   6.137227   500.059404
   6.138828   500.059363
   6.140428   500.059323
   6.142028   500.059282
   6.143629   500.059242
   6.145229   500.059202
   6.146829   500.059163
   6.148430   500.059123
   6.150030   500.059084
   6.151630   500.059046
   6.153231   500.059007
   6.154831   500.058969
   6.156431   500.058931
   6.158032   500.058893
   6.159632   500.058855
   6.161232   500.058817
   6.162833   500.058780
   6.164433   500.058743
   6.166033   500.058706
   6.167634   500.058670
   6.169234   500.058633
   6.170834   500.058597
   6.172434   500.058561
   6.174035   500.058525
   6.175635   500.058489
   6.177235   500.058454
   6.178836   500.058418
   6.180436   500.058383
   6.182036   500.058348
   6.183637   500.058313
   6.185237   500.058278
   6.186837   500.058244
   6.188438   500.058209
   6.190038   500.058175
   6.191638   500.058141
   6.193239   500.058107
   6.194839   500.058073
   6.196439   500.058039
   6.198040   500.058005
   6.199640   500.057972
   6.201240   500.057938
   6.202841   500.057905
   6.204441   500.057872
   6.206041   500.057839
   6.207642   500.057806
   6.209242   500.057773
   6.210842   500.057740
   6.212442   500.057708
   6.214043   500.057675
   6.215643   500.057643
   6.217243   500.057611
   6.218844   500.057578
   6.220444   500.057546
   6.222044   500.057514
   6.223645   500.057482
   6.225245   500.057450
   6.226845   500.057419
   6.228446   500.057387
   6.230046   500.057355
   6.231646   500.057324
   6.233247   500.057292
   6.234847   500.057261
   6.236447   500.057230
   6.238048   500.057198
   6.239648   500.057167
   6.241248   500.057136
   6.242849   500.057105
   6.244449   500.057074
   6.246049   500.057043
   6.247650   500.057013
   6.249250   500.056982
   6.250850   500.056951
   6.252450   500.056921
   6.254051   500.056890
   6.255651   500.056860
   6.257251   500.056829
   6.258852   500.056799
   6.260452   500.056769
   6.262052   500.056739
   6.263653   500.056708
   6.265253   500.056678
   6.266853   500.056648
   6.268454   500.056618
   6.270054   500.056588
   6.271654   500.056558
   6.273255   500.056528
   6.274855   500.056499
   6.276455   500.056469
   6.278056   500.056439
   6.279656   500.056410
   6.281256   500.056380
   6.282857   500.056350
   6.284457   500.056321
   6.286057   500.056291
   6.287658   500.056262
   6.289258   500.056233
   6.290858   500.056203
   6.292458   500.056174
   6.294059   500.056145
   6.295659   500.056116
   6.297259   500.056086
   6.298860   500.056057
   6.300460   500.056028
   6.302060   500.055999
   6.303661   500.055970
   6.305261   500.055941
   6.306861   500.055912
   6.308462   500.055883
   6.310062   500.055854
   6.311662   500.055826
   6.313263   500.055797
   6.314863   500.055768
   6.316463   500.055739
   6.318064   500.055711
   6.319664   500.055682
   6.321264   500.055653
   6.322865   500.055625
   6.324465   500.055596
   6.326065   500.055568
   6.327666   500.055539
   6.329266   500.055511
   6.330866   500.055482
   6.332466   500.055454
   6.334067   500.055426
   6.335667   500.055397
   6.337267   500.055369
   6.338868   500.055341
   6.340468   500.055313
   6.342068   500.055284
   6.343669   500.055256
   6.345269   500.055228
   6.346869   500.055200
   6.348470   500.055172
   6.350070   500.055144
   6.351670   500.055116
   6.353271   500.055088
   6.354871   500.055060
   6.356471   500.055032
   6.358072   500.055004
   6.359672   500.054976
   6.361272   500.054948
   6.362873   500.054920
   6.364473   500.054893
   6.366073   500.054865
   6.367674   500.054837
   6.369274   500.054809
   6.370874   500.054782
   6.372474   500.054754
   6.374075   500.054726
   6.375675   500.054699
   6.377275   500.054671
   6.378876   500.054643
   6.380476   500.054616
   6.382076   500.054588
   6.383677   500.054561
   6.385277   500.054533
   6.386877   500.054506
   6.388478   500.054478
   6.390078   500.054451
   6.391678   500.054424
   6.393279   500.054396
   6.394879   500.054369
   6.396479   500.054342
   6.398080   500.054314
   6.399680   500.054287
   6.401280   500.054260
   6.402881   500.054233
   6.404481   500.054205
   6.406081   500.054178
   6.407682   500.054151
   6.409282   500.054124
   6.410882   500.054097
   6.412482   500.054070
   6.414083   500.054043
   6.415683   500.054016
   6.417283   500.053989
   6.418884   500.053962
   6.420484   500.053935
   6.422084   500.053908
   6.423685   500.053881
   6.425285   500.053854
   6.426885   500.053827
   6.428486   500.053800
   6.430086   500.053773
   6.431686   500.053746
   6.433287   500.053720
   6.434887   500.053693
   6.436487   500.053666
   6.438088   500.053639
   6.439688   500.053613
   6.441288   500.053586
   6.442889   500.053559
   6.444489   500.053533
   6.446089   500.053506
   6.447690   500.053479
   6.449290   500.053453
   6.450890   500.053426
   6.452490   500.053400
   6.454091   500.053373
   6.455691   500.053347
   6.457291   500.053320
   6.458892   500.053294
   6.460492   500.053267
   6.462092   500.053241
   6.463693   500.053215
   6.465293   500.053188
   6.466893   500.053162
   6.468494   500.053135
   6.470094   500.053109
   6.471694   500.053083
   6.473295   500.053057
   6.474895   500.053030
   6.476495   500.053004
   6.478096   500.052978
   6.479696   500.052952
   6.481296   500.052925
   6.482897   500.052899
   6.484497   500.052873
   6.486097   500.052847
   6.487698   500.052821
   6.489298   500.052795
   6.490898   500.052769
   6.492498   500.052743
   6.494099   500.052717
   6.495699   500.052691
   6.497299   500.052665
   6.498900   500.052639
   6.500500   500.052613
   6.502100   500.052587
   6.503701   500.052561
   6.505301   500.052535
   6.506901   500.052509
   6.508502   500.052484
   6.510102   500.052458
   6.511702   500.052432
   6.513303   500.052406
   6.514903   500.052380
   6.516503   500.052355
   6.518104   500.052329
   6.519704   500.052303
   6.521304   500.052277
   6.522905   500.052252
   6.524505   500.052226
   6.526105   500.052201
   6.527706   500.052175
   6.529306   500.052149
   6.530906   500.052124
   6.532507   500.052098
   6.534107   500.052073
   6.535707   500.052047
   6.537307   500.052022
   6.538908   500.051996
   6.540508   500.051971
   6.542108   500.051945
   6.543709   500.051920
   6.545309   500.051894
   6.546909   500.051869
   6.548510   500.051844
   6.550110   500.051818
   6.551710   500.051793
   6.553311   500.051768
   6.554911   500.051742
   6.556511   500.051717
   6.558112   500.051692
   6.559712   500.051667
   6.561312   500.051641
   6.562913   500.051616
   6.564513   500.051591
   6.566113   500.051566
   6.567714   500.051541
   6.569314   500.051516
   6.570914   500.051491
   6.572515   500.051465
   6.574115   500.051440
   6.575715   500.051415
   6.577315   500.051390
   6.578916   500.051365
   6.580516   500.051340
   6.582116   500.051315
   6.583717   500.051290
   6.585317   500.051265
   6.586917   500.051241
   6.588518   500.051216
   6.590118   500.051191
   6.591718   500.051166
   6.593319   500.051141
   6.594919   500.051116
   6.596519   500.051091
   6.598120   500.051067
   6.599720   500.051042
   6.601320   500.051017
   6.602921   500.050992
   6.604521   500.050968
   6.606121   500.050943
   6.607722   500.050918
   6.609322   500.050894
   6.610922   500.050869
   6.612523   500.050844
   6.614123   500.050820
   6.615723   500.050795
   6.617323   500.050770
   6.618924   500.050746
   6.620524   500.050721
   6.622124   500.050697
   6.623725   500.050672
   6.625325   500.050648
   6.626925   500.050623
   6.628526   500.050599
   6.630126   500.050575
   6.631726   500.050550
   6.633327   500.050526
   6.634927   500.050501
   6.636527   500.050477
   6.638128   500.050453
   6.639728   500.050428
   6.641328   500.050404
   6.642929   500.050380
   6.644529   500.050355
   6.646129   500.050331
   6.647730   500.050307
   6.649330   500.050283
   6.650930   500.050258
   6.652531   500.050234
   6.654131   500.050210
   6.655731   500.050186
   6.657331   500.050162
   6.658932   500.050138
   6.660532   500.050114
   6.662132   500.050090
   6.663733   500.050065
   6.665333   500.050041
   6.666933   500.050017
   6.668534   500.049993
   6.670134   500.049969
   6.671734   500.049945
   6.673335   500.049921
   6.674935   500.049897
   6.676535   500.049874
   6.678136   500.049850
   6.679736   500.049826
   6.681336   500.049802
   6.682937   500.049778
   6.684537   500.049754
   6.686137   500.049730
   6.687738   500.049707
   6.689338   500.049683
   6.690938   500.049659
   6.692539   500.049635
   6.694139   500.049611
   6.695739   500.049588
   6.697339   500.049564
   6.698940   500.049540
   6.700540   500.049517
   6.702140   500.049493
   6.703741   500.049469
   6.705341   500.049446
   6.706941   500.049422
   6.708542   500.049399
   6.710142   500.049375
   6.711742   500.049351
   6.713343   500.049328
   6.714943   500.049304
   6.716543   500.049281
   6.718144   500.049257
   6.719744   500.049234
   6.721344   500.049210
   6.722945   500.049187
   6.724545   500.049164
   6.726145   500.049140
   6.727746   500.049117
   6.729346   500.049093
   6.730946   500.049070
   6.732547   500.049047
   6.734147   500.049023
   6.735747   500.049000
   6.737347   500.048977
   6.738948   500.048954
   6.740548   500.048930
   6.742148   500.048907
   6.743749   500.048884
   6.745349   500.048861
   6.746949   500.048838
   6.748550   500.048814
   6.750150   500.048791
   6.751750   500.048768
   6.753351   500.048745
   6.754951   500.048722
   6.756551   500.048699
   6.758152   500.048676
   6.759752   500.048653
   6.761352   500.048630
   6.762953   500.048607
   6.764553   500.048584
   6.766153   500.048561
   6.767754   500.048538
   6.769354   500.048515
   6.770954   500.048492
   6.772555   500.048469
   6.774155   500.048446
   6.775755   500.048423
   6.777355   500.048400
   6.778956   500.048377
   6.780556   500.048354
   6.782156   500.048332
   6.783757   500.048309
   6.785357   500.048286
   6.786957   500.048263
   6.788558   500.048240
   6.790158   500.048218
   6.791758   500.048195
   6.793359   500.048172
   6.794959   500.048150
   6.796559   500.048127
   6.798160   500.048104
   6.799760   500.048082
   6.801360   500.048059
   6.802961   500.048036
   6.804561   500.048014
   6.806161   500.047991
   6.807762   500.047969
   6.809362   500.047946
   6.810962   500.047923
   6.812563   500.047901
   6.814163   500.047878
   6.815763   500.047856
   6.817363   500.047833
   6.818964   500.047811
   6.820564   500.047789
   6.822164   500.047766
   6.823765   500.047744
   6.825365   500.047721
   6.826965   500.047699
   6.828566   500.047677
   6.830166   500.047654
   6.831766   500.047632
   6.833367   500.047610
   6.834967   500.047587
   6.836567   500.047565
   6.838168   500.047543
   6.839768   500.047520
   6.841368   500.047498
   6.842969   500.047476
   6.844569   500.047454
   6.846169   500.047432
   6.847770   500.047409
   6.849370   500.047387
   6.850970   500.047365
   6.852571   500.047343
   6.854171   500.047321
   6.855771   500.047299
   6.857371   500.047277
   6.858972   500.047255
   6.860572   500.047233
   6.862172   500.047211
   6.863773   500.047189
   6.865373   500.047167
   6.866973   500.047145
   6.868574   500.047123
   6.870174   500.047101
   6.871774   500.047079
   6.873375   500.047057
   6.874975   500.047035
   6.876575   500.047013
   6.878176   500.046991
   6.879776   500.046969
   6.881376   500.046947
   6.882977   500.046925
   6.884577   500.046904
   6.886177   500.046882
   6.887778   500.046860
   6.889378   500.046838
   6.890978   500.046817
   6.892579   500.046795
   6.894179   500.046773
   6.895779   500.046751
   6.897379   500.046730
   6.898980   500.046708
   6.900580   500.046686
   6.902180   500.046665
   6.903781   500.046643
   6.905381   500.046621
   6.906981   500.046600
   6.908582   500.046578
   6.910182   500.046557
   6.911782   500.046535
   6.913383   500.046513
   6.914983   500.046492
   6.916583   500.046470
   6.918184   500.046449
   6.919784   500.046427
   6.921384   500.046406
   6.922985   500.046384
   6.924585   500.046363
   6.926185   500.046342
   6.927786   500.046320
   6.929386   500.046299
   6.930986   500.046277
   6.932587   500.046256
   6.934187   500.046235
   6.935787   500.046213
   6.937387   500.046192
   6.938988   500.046171
   6.940588   500.046149
   6.942188   500.046128
   6.943789   500.046107
   6.945389   500.046086
   6.946989   500.046064
   6.948590   500.046043
   6.950190   500.046022
   6.951790   500.046001
   6.953391   500.045980
   6.954991   500.045958
   6.956591   500.045937
   6.958192   500.045916
   6.959792   500.045895
   6.961392   500.045874
   6.962993   500.045853
   6.964593   500.045832
   6.966193   500.045811
   6.967794   500.045790
   6.969394   500.045769
   6.970994   500.045747
   6.972595   500.045726
   6.974195   500.045706
   6.975795   500.045685
   6.977395   500.045664
   6.978996   500.045643
   6.980596   500.045622
   6.982196   500.045601
   6.983797   500.045580
   6.985397   500.045559
   6.986997   500.045538
   6.988598   500.045517
   6.990198   500.045496
   6.991798   500.045476
   6.993399   500.045455
   6.994999   500.045434
   6.996599   500.045413
   6.998200   500.045392
   6.999800   500.045372
   7.001400   500.045351
   7.003001   500.045330
   7.004601   500.045309
   7.006201   500.045289
   7.007802   500.045268
   7.009402   500.045247
   7.011002   500.045227
   7.012603   500.045206
   7.014203   500.045185
   7.015803   500.045165
   7.017403   500.045144
   7.019004   500.045124
   7.020604   500.045103
   7.022204   500.045082
   7.023805   500.045062
   7.025405   500.045041
   7.027005   500.045021
   7.028606   500.045000
   7.030206   500.044980
   7.031806   500.044959
   7.033407   500.044939
   7.035007   500.044918
   7.036607   500.044898
   7.038208   500.044878
   7.039808   500.044857
   7.041408   500.044837
   7.043009   500.044816
   7.044609   500.044796
   7.046209   500.044776
   7.047810   500.044755
   7.049410   500.044735
   7.051010   500.044715
   7.052611   500.044694
   7.054211   500.044674
   7.055811   500.044654
   7.057411   500.044634
   7.059012   500.044613
   7.060612   500.044593
   7.062212   500.044573
   7.063813   500.044553
   7.065413   500.044532
   7.067013   500.044512
   7.068614   500.044492
   7.070214   500.044472
   7.071814   500.044452
   7.073415   500.044432
   7.075015   500.044412
   7.076615   500.044392
   7.078216   500.044371
   7.079816   500.044351
   7.081416   500.044331
   7.083017   500.044311
   7.084617   500.044291
   7.086217   500.044271
   7.087818   500.044251
   7.089418   500.044231
   7.091018   500.044211
   7.092619   500.044191
   7.094219   500.044171
   7.095819   500.044152
   7.097419   500.044132
   7.099020   500.044112
   7.100620   500.044092
   7.102220   500.044072
   7.103821   500.044052
   7.105421   500.044032
   7.107021   500.044012
   7.108622   500.043993
   7.110222   500.043973
   7.111822   500.043953
   7.113423   500.043933
   7.115023   500.043913
   7.116623   500.043894
   7.118224   500.043874
   7.119824   500.043854
   7.121424   500.043834
   7.123025   500.043815
   7.124625   500.043795
   7.126225   500.043775
   7.127826   500.043756
   7.129426   500.043736
   7.131026   500.043716
   7.132627   500.043697
   7.134227   500.043677
   7.135827   500.043658
   7.137427   500.043638
   7.139028   500.043618
   7.140628   500.043599
   7.142228   500.043579
   7.143829   500.043560
   7.145429   500.043540
   7.147029   500.043521
   7.148630   500.043501
   7.150230   500.043482
   7.151830   500.043462
   7.153431   500.043443
   7.155031   500.043424
   7.156631   500.043404
   7.158232   500.043385
   7.159832   500.043365
   7.161432   500.043346
   7.163033   500.043327
   7.164633   500.043307
   7.166233   500.043288
   7.167834   500.043268
   7.169434   500.043249
   7.171034   500.043230
   7.172635   500.043211
   7.174235   500.043191
   7.175835   500.043172
   7.177435   500.043153
   7.179036   500.043133
   7.180636   500.043114
   7.182236   500.043095
   7.183837   500.043076
   7.185437   500.043057
   7.187037   500.043037
   7.188638   500.043018
   7.190238   500.042999
   7.191838   500.042980
   7.193439   500.042961
   7.195039   500.042942
   7.196639   500.042923
   7.198240   500.042904
   7.199840   500.042884
   7.201440   500.042865
   7.203041   500.042846
   7.204641   500.042827
   7.206241   500.042808
   7.207842   500.042789
   7.209442   500.042770
   7.211042   500.042751
   7.212643   500.042732
   7.214243   500.042713
   7.215843   500.042694
   7.217443   500.042675
   7.219044   500.042657
   7.220644   500.042638
   7.222244   500.042619
   7.223845   500.042600
   7.225445   500.042581
   7.227045   500.042562
   7.228646   500.042543
   7.230246   500.042524
   7.231846   500.042506
   7.233447   500.042487
   7.235047   500.042468
   7.236647   500.042449
   7.238248   500.042430
   7.239848   500.042412
   7.241448   500.042393
   7.243049   500.042374
   7.244649   500.042355
   7.246249   500.042337
   7.247850   500.042318
   7.249450   500.042299
   7.251050   500.042281
   7.252651   500.042262
   7.254251   500.042243
   7.255851   500.042225
   7.257451   500.042206
   7.259052   500.042187
   7.260652   500.042169
   7.262252   500.042150
   7.263853   500.042132
   7.265453   500.042113
   7.267053   500.042095
   7.268654   500.042076
   7.270254   500.042058
   7.271854   500.042039
   7.273455   500.042021
   7.275055   500.042002
   7.276655   500.041984
   7.278256   500.041965
   7.279856   500.041947
   7.281456   500.041928
   7.283057   500.041910
   7.284657   500.041891
   7.286257   500.041873
   7.287858   500.041855
   7.289458   500.041836
   7.291058   500.041818
   7.292659   500.041799
   7.294259   500.041781
   7.295859   500.041763
   7.297459   500.041744
   7.299060   500.041726
   7.300660   500.041708
   7.302260   500.041690
   7.303861   500.041671
   7.305461   500.041653
   7.307061   500.041635
   7.308662   500.041616
   7.310262   500.041598
   7.311862   500.041580
   7.313463   500.041562
   7.315063   500.041544
   7.316663   500.041525
   7.318264   500.041507
   7.319864   500.041489
   7.321464   500.041471
   7.323065   500.041453
   7.324665   500.041435
   7.326265   500.041417
   7.327866   500.041399
   7.329466   500.041380
   7.331066   500.041362
   7.332667   500.041344
   7.334267   500.041326
   7.335867   500.041308
   7.337467   500.041290
   7.339068   500.041272
   7.340668   500.041254
   7.342268   500.041236
   7.343869   500.041218
   7.345469   500.041200
   7.347069   500.041182
   7.348670   500.041164
   7.350270   500.041146
   7.351870   500.041129
   7.353471   500.041111
   7.355071   500.041093
   7.356671   500.041075
   7.358272   500.041057
   7.359872   500.041039
   7.361472   500.041021
   7.363073   500.041003
   7.364673   500.040986
   7.366273   500.040968
   7.367874   500.040950
   7.369474   500.040932
   7.371074   500.040914
   7.372675   500.040897
   7.374275   500.040879
   7.375875   500.040861
   7.377475   500.040843
   7.379076   500.040826
   7.380676   500.040808
   7.382276   500.040790
   7.383877   500.040773
   7.385477   500.040755
   7.387077   500.040737
   7.388678   500.040720
   7.390278   500.040702
   7.391878   500.040684
   7.393479   500.040667
   7.395079   500.040649
   7.396679   500.040632
   7.398280   500.040614
   7.399880   500.040596
   7.401480   500.040579
   7.403081   500.040561
   7.404681   500.040544
   7.406281   500.040526
   7.407882   500.040509
   7.409482   500.040491
   7.411082   500.040474
   7.412683   500.040456
   7.414283   500.040439
   7.415883   500.040421
   7.417483   500.040404
   7.419084   500.040386
   7.420684   500.040369
   7.422284   500.040352
   7.423885   500.040334
   7.425485   500.040317
   7.427085   500.040299
   7.428686   500.040282
   7.430286   500.040265
   7.431886   500.040247
   7.433487   500.040230
   7.435087   500.040213
   7.436687   500.040195
   7.438288   500.040178
   7.439888   500.040161
   7.441488   500.040144
   7.443089   500.040126
   7.444689   500.040109
   7.446289   500.040092
   7.447890   500.040075
   7.449490   500.040057
   7.451090   500.040040
   7.452691   500.040023
   7.454291   500.040006
   7.455891   500.039989
   7.457491   500.039971
   7.459092   500.039954
   7.460692   500.039937
   7.462292   500.039920
   7.463893   500.039903
   7.465493   500.039886
   7.467093   500.039869
   7.468694   500.039852
   7.470294   500.039834
   7.471894   500.039817
   7.473495   500.039800
   7.475095   500.039783
   7.476695   500.039766
   7.478296   500.039749
   7.479896   500.039732
   7.481496   500.039715
   7.483097   500.039698
   7.484697   500.039681
   7.486297   500.039664
   7.487898   500.039647
   7.489498   500.039630
   7.491098   500.039613
   7.492699   500.039597
   7.494299   500.039580
   7.495899   500.039563
   7.497499   500.039546
   7.499100   500.039529
   7.500700   500.039512
   7.502300   500.039495
   7.503901   500.039478
   7.505501   500.039462
   7.507101   500.039445
   7.508702   500.039428
   7.510302   500.039411
   7.511902   500.039394
   7.513503   500.039377
   7.515103   500.039361
   7.516703   500.039344
   7.518304   500.039327
   7.519904   500.039310
   7.521504   500.039294
   7.523105   500.039277
   7.524705   500.039260
   7.526305   500.039244
   7.527906   500.039227
   7.529506   500.039210
   7.531106   500.039194
   7.532707   500.039177
   7.534307   500.039160
   7.535907   500.039144
   7.537508   500.039127
   7.539108   500.039110
   7.540708   500.039094
   7.542308   500.039077
   7.543909   500.039061
   7.545509   500.039044
   7.547109   500.039027
   7.548710   500.039011
   7.550310   500.038994
   7.551910   500.038978
   7.553511   500.038961
   7.555111   500.038945
   7.556711   500.038928
   7.558312   500.038912
   7.559912   500.038895
   7.561512   500.038879
   7.563113   500.038862
   7.564713   500.038846
   7.566313   500.038830
   7.567914   500.038813
   7.569514   500.038797
   7.571114   500.038780
   7.572715   500.038764
   7.574315   500.038747
   7.575915   500.038731
   7.577516   500.038715
   7.579116   500.038698
   7.580716   500.038682
   7.582316   500.038666
   7.583917   500.038649
   7.585517   500.038633
   7.587117   500.038617
   7.588718   500.038601
   7.590318   500.038584
   7.591918   500.038568
   7.593519   500.038552
   7.595119   500.038535
   7.596719   500.038519
   7.598320   500.038503
   7.599920   500.038487
   7.601520   500.038471
   7.603121   500.038454
   7.604721   500.038438
   7.606321   500.038422
   7.607922   500.038406
   7.609522   500.038390
   7.611122   500.038374
   7.612723   500.038357
   7.614323   500.038341
   7.615923   500.038325
   7.617524   500.038309
   7.619124   500.038293
   7.620724   500.038277
   7.622324   500.038261
   7.623925   500.038245
   7.625525   500.038229
   7.627125   500.038213
   7.628726   500.038197
   7.630326   500.038181
   7.631926   500.038165
   7.633527   500.038149
   7.635127   500.038133
   7.636727   500.038117
   7.638328   500.038101
   7.639928   500.038085
   7.641528   500.038069
   7.643129   500.038053
   7.644729   500.038037
   7.646329   500.038021
   7.647930   500.038005
   7.649530   500.037989
   7.651130   500.037973
   7.652731   500.037957
   7.654331   500.037941
   7.655931   500.037925
   7.657532   500.037910
   7.659132   500.037894
   7.660732   500.037878
   7.662332   500.037862
   7.663933   500.037846
   7.665533   500.037831
   7.667133   500.037815
   7.668734   500.037799
   7.670334   500.037783
   7.671934   500.037767
   7.673535   500.037752
   7.675135   500.037736
   7.676735   500.037720
   7.678336   500.037704
   7.679936   500.037689
   7.681536   500.037673
   7.683137   500.037657
   7.684737   500.037642
   7.686337   500.037626
   7.687938   500.037610
   7.689538   500.037595
   7.691138   500.037579
   7.692739   500.037563
   7.694339   500.037548
   7.695939   500.037532
   7.697540   500.037516
   7.699140   500.037501
   7.700740   500.037485
   7.702340   500.037470
   7.703941   500.037454
   7.705541   500.037439
   7.707141   500.037423
   7.708742   500.037407
   7.710342   500.037392
   7.711942   500.037376
   7.713543   500.037361
   7.715143   500.037345
   7.716743   500.037330
   7.718344   500.037314
   7.719944   500.037299
   7.721544   500.037283
   7.723145   500.037268
   7.724745   500.037253
   7.726345   500.037237
   7.727946   500.037222
   7.729546   500.037206
   7.731146   500.037191
   7.732747   500.037176
   7.734347   500.037160
   7.735947   500.037145
   7.737548   500.037129
   7.739148   500.037114
   7.740748   500.037099
   7.742348   500.037083
   7.743949   500.037068
   7.745549   500.037053
   7.747149   500.037037
   7.748750   500.037022
   7.750350   500.037007
   7.751950   500.036991
   7.753551   500.036976
   7.755151   500.036961
   7.756751   500.036946
   7.758352   500.036930
   7.759952   500.036915
   7.761552   500.036900
   7.763153   500.036885
   7.764753   500.036870
   7.766353   500.036854
   7.767954   500.036839
   7.769554   500.036824
   7.771154   500.036809
   7.772755   500.036794
   7.774355   500.036779
   7.775955   500.036763
   7.777556   500.036748
   7.779156   500.036733
   7.780756   500.036718
   7.782356   500.036703
   7.783957   500.036688
   7.785557   500.036673
   7.787157   500.036658
   7.788758   500.036643
   7.790358   500.036628
   7.791958   500.036612
   7.793559   500.036597
   7.795159   500.036582
   7.796759   500.036567
   7.798360   500.036552
   7.799960   500.036537
   7.801560   500.036522
   7.803161   500.036507
   7.804761   500.036492
   7.806361   500.036477
   7.807962   500.036462
   7.809562   500.036448
   7.811162   500.036433
   7.812763   500.036418
   7.814363   500.036403
   7.815963   500.036388
   7.817564   500.036373
   7.819164   500.036358
   7.820764   500.036343
   7.822364   500.036328
   7.823965   500.036313
   7.825565   500.036299
   7.827165   500.036284
   7.828766   500.036269
   7.830366   500.036254
   7.831966   500.036239
   7.833567   500.036224
   7.835167   500.036210
   7.836767   500.036195
   7.838368   500.036180
   7.839968   500.036165
   7.841568   500.036151
   7.843169   500.036136
   7.844769   500.036121
   7.846369   500.036106
   7.847970   500.036092
   7.849570   500.036077
   7.851170   500.036062
   7.852771   500.036047
   7.854371   500.036033
   7.855971   500.036018
   7.857572   500.036003
   7.859172   500.035989
   7.860772   500.035974
   7.862372   500.035959
   7.863973   500.035945
   7.865573   500.035930
   7.867173   500.035916
   7.868774   500.035901
   7.870374   500.035886
   7.871974   500.035872
   7.873575   500.035857
   7.875175   500.035843
   7.876775   500.035828
   7.878376   500.035813
   7.879976   500.035799
   7.881576   500.035784
   7.883177   500.035770
   7.884777   500.035755
   7.886377   500.035741
   7.887978   500.035726
   7.889578   500.035712
   7.891178   500.035697
   7.892779   500.035683
   7.894379   500.035668
   7.895979   500.035654
   7.897580   500.035639
   7.899180   500.035625
   7.900780   500.035611
   7.902380   500.035596
   7.903981   500.035582
   7.905581   500.035567
   7.907181   500.035553
   7.908782   500.035538
   7.910382   500.035524
   7.911982   500.035510
   7.913583   500.035495
   7.915183   500.035481
   7.916783   500.035467
   7.918384   500.035452
   7.919984   500.035438
   7.921584   500.035424
   7.923185   500.035409
   7.924785   500.035395
   7.926385   500.035381
   7.927986   500.035366
   7.929586   500.035352
   7.931186   500.035338
   7.932787   500.035324
   7.934387   500.035309
   7.935987   500.035295
   7.937588   500.035281
   7.939188   500.035267
   7.940788   500.035253
   7.942388   500.035238
   7.943989   500.035224
   7.945589   500.035210
   7.947189   500.035196
   7.948790   500.035182
   7.950390   500.035167
   7.951990   500.035153
   7.953591   500.035139
   7.955191   500.035125
   7.956791   500.035111
   7.958392   500.035097
   7.959992   500.035083
   7.961592   500.035068
   7.963193   500.035054
   7.964793   500.035040
   7.966393   500.035026
   7.967994   500.035012
   7.969594   500.034998
   7.971194   500.034984
   7.972795   500.034970
   7.974395   500.034956
   7.975995   500.034942
   7.977596   500.034928
   7.979196   500.034914
   7.980796   500.034900
   7.982396   500.034886
   7.983997   500.034872
   7.985597   500.034858
   7.987197   500.034844
   7.988798   500.034830
   7.990398   500.034816
   7.991998   500.034802
   7.993599   500.034788
   7.995199   500.034774
   7.996799   500.034760
   7.998400   500.034746
   8.000000   500.034732