 Eloss (eV)    Int (a.u.)  Int Err (a.u.)
 -38.078957   1307.538940       36.159908
 -38.047232    867.548340       29.454174
 -38.015507   1267.074463       35.595989
 -37.983783    840.511230       28.991572
 -37.952058   1189.216797       34.485023
 -37.920333    998.086853       31.592513
 -37.888608   1542.792847       39.278402
 -37.856883    960.318237       30.989002
 -37.825158   1226.022949       35.014611
 -37.793433    730.794800       27.033217
 -37.761708   1617.304443       40.215724
 -37.729983    901.434937       30.023906
 -37.698258   1265.565918       35.574793
 -37.666533   1094.946533       33.089976
 -37.634809   1425.655762       37.757857
 -37.603084    568.557068       23.844435
 -37.571359    963.683960       31.043259
 -37.539634    966.944580       31.095733
 -37.507909   1326.338867       36.418936
 -37.476184    724.516113       26.916837
 -37.444459   1361.341309       36.896359
 -37.412734   1176.802612       34.304557
 -37.381009   1659.210083       40.733403
 -37.349284    920.539795       30.340399
 -37.317559   1035.299316       32.176067
 -37.285834    971.987305       31.176711
 -37.254110   1468.703857       38.323672
 -37.222385    743.852905       27.273667
 -37.190660   1479.745605       38.467462
 -37.158935    985.587158       31.394062
 -37.127210   1398.079346       37.390899
 -37.095485    544.528076       23.335125
 -37.063760   1083.857544       32.921992
 -37.032035    752.344238       27.428894
 -37.000310   1241.340088       35.232657
 -36.968585    712.729736       26.696999
 -36.936860   1244.525146       35.277828
 -36.905136   1038.218872       32.221404
 -36.873411   1488.399536       38.579781
 -36.841686    701.956177       26.494456
 -36.809961   1195.922974       34.582119
 -36.778236    796.580444       28.223757
 -36.746511   1308.958130       36.179526
 -36.714786    984.180298       31.371648
 -36.683061   1222.908936       34.970115
 -36.651336   1252.955200       35.397107
 -36.619611   1421.908936       37.708208
 -36.587886    590.349915       24.297117
 -36.556162   1169.028564       34.191060
 -36.524437    924.192505       30.400535
 -36.492712   1371.825928       37.038169
 -36.460987    720.981934       26.851107
 -36.429262   1149.237549       33.900406
 -36.397537   1127.151855       33.573082
 -36.365812   1610.214111       40.127473
 -36.334087    785.746582       28.031172
 -36.302362   1282.366943       35.810151
 -36.270637    765.328125       27.664564
 -36.238912   1402.206665       37.446050
 -36.207188    465.969604       21.586329
 -36.175463   1067.179688       32.667716
 -36.143738    876.960144       29.613513
 -36.112013   1580.321045       39.753252
 -36.080288    570.587646       23.886977
 -36.048563   1174.825928       34.275734
 -36.016838    965.837402       31.077925
 -35.985113   1266.265137       35.584619
 -35.953388    900.786011       30.013097
 -35.921663   1047.921387       32.371614
 -35.889938    789.482910       28.097739
 -35.858213   1647.136963       40.584935
 -35.826489    909.031128       30.150143
 -35.794764   1300.820801       36.066893
 -35.763039    849.566223       29.147319
 -35.731314   1850.605957       43.018670
 -35.699589   1038.834595       32.230957
 -35.667864    865.408325       29.417823
 -35.636139    892.251282       29.870576
 -35.604414   1497.435059       38.696706
 -35.572689    395.344482       19.883271
 -35.540964   1235.532837       35.150147
 -35.509239    929.608459       30.489481
 -35.477515   1276.698242       35.730914
 -35.445790   1097.137695       33.123069
 -35.414065    928.018921       30.463403
 -35.382340   1026.780762       32.043420
 -35.350615   1425.784668       37.759564
 -35.318890    822.811157       28.684685
 -35.287165   1299.089478       36.042884
 -35.255440   1052.162109       32.437048
 -35.223715   1192.224243       34.528600
 -35.191990    636.971924       25.238303
 -35.160265   1129.383667       33.606304
 -35.128541    915.247253       30.253054
 -35.096816   1331.383667       36.488130
 -35.065091    861.380249       29.349280
 -35.033366   1312.927002       36.234335
 -35.001641   1099.431641       33.157678
 -34.969916   1456.602539       38.165463
 -34.938191    830.120850       28.811818
 -34.906466   1306.947632       36.151731
 -34.874741    857.849731       29.289072
 -34.843016   1245.797119       35.295851
 -34.811291    599.639709       24.487542
 -34.779567   1177.282837       34.311555
 -34.747842    872.717834       29.541798
 -34.716117   1482.102661       38.498086
 -34.684392    667.739197       25.840650
 -34.652667   1215.009766       34.856990
 -34.620942   1017.203125       31.893622
 -34.589217   1397.608887       37.384608
 -34.557492    917.500732       30.290275
 -34.525767   1384.114502       37.203689
 -34.494042   1067.610107       32.674303
 -34.462317   1334.637573       36.532692
 -34.430592    778.272217       27.897531
 -34.398868   1377.971436       37.121038
 -34.367143    925.327515       30.419196
 -34.335418   1448.527832       38.059530
 -34.303693   1068.916992       32.694296
 -34.271968   1546.562012       39.326353
 -34.240243   1427.966553       37.788445
 -34.208518   1419.041626       37.670169
 -34.176793    739.672852       27.196927
 -34.145068   1351.305908       36.760113
 -34.113343    810.912598       28.476527
 -34.081618   1457.658447       38.179293
 -34.049894    649.464294       25.484589
 -34.018169   1313.624390       36.243957
 -33.986444    881.704407       29.693508
 -33.954719   1349.485596       36.735345
 -33.922994   1066.677856       32.660035
 -33.891269   1130.061279       33.616384
 -33.859544    810.933838       28.476900
 -33.827819   1207.760742       34.752852
 -33.796094    926.637390       30.440719
 -33.764369   1208.529419       34.763910
 -33.732644   1036.577759       32.195928
 -33.700920   1280.829590       35.788680
 -33.669195    854.602356       29.233583
 -33.637470    979.506836       31.297074
 -33.605745   1104.879639       33.239730
 -33.574020   1315.705322       36.272653
 -33.542295    676.956116       26.018380
 -33.510570   1461.010986       38.223173
 -33.478845   1007.125549       31.735241
 -33.447120   1565.860718       39.570958
 -33.415395    756.755859       27.509196
 -33.383670    871.099976       29.514403
 -33.351946    903.040100       30.050626
 -33.320221   1460.444946       38.215768
 -33.288496    921.415283       30.354823
 -33.256771   1109.371338       33.307227
 -33.225046   1310.953979       36.207098
 -33.193321   1536.178467       39.194113
 -33.161596    761.857178       27.601760
 -33.129871   1155.948486       33.999242
 -33.098146    940.286377       30.664089
 -33.066421   1733.357544       41.633611
 -33.034696    449.027740       21.190275
 -33.002971   1402.882935       37.455079
 -32.971247   1036.151611       32.189309
 -32.939522   1415.253174       37.619851
 -32.907797    790.169678       28.109957
 -32.876072   1028.110107       32.064156
 -32.844347   1010.145996       31.782794
 -32.812622   1392.247070       37.312827
 -32.780897    753.651489       27.452714
 -32.749172   1215.601074       34.865471
 -32.717447    641.335510       25.324603
 -32.685722   1564.852539       39.558217
 -32.653997    627.734375       25.054628
 -32.622273    844.056885       29.052657
 -32.590548    844.835327       29.066051
 -32.558823   1561.273926       39.512959
 -32.527098    956.625000       30.929355
 -32.495373    685.663696       26.185181
 -32.463648   1014.702637       31.854397
 -32.431923   1185.581055       34.432268
 -32.400198    968.104736       31.114382
 -32.368473   1220.684814       34.938300
 -32.336748   1048.445923       32.379715
 -32.305023   1368.315674       36.990751
 -32.273299    617.858887       24.856767
 -32.241574   1195.907837       34.581900
 -32.209849   1026.760254       32.043100
 -32.178124   1372.760742       37.050786
 -32.146399    619.339233       24.886527
 -32.114674   1033.587646       32.149458
 -32.082949    970.997681       31.160836
 -32.051224   1239.016846       35.199671
 -32.019499    511.369080       22.613471
 -31.987774   1203.736328       34.694903
 -31.956049   1123.661377       33.521059
 -31.924325   1270.324463       35.641611
 -31.892600    737.516235       27.157250
 -31.860875    991.645386       31.490401
 -31.829150   1030.690063       32.104362
 -31.797425   1602.391113       40.029878
 -31.765700    932.701355       30.540160
 -31.733975   1112.821289       33.358976
 -31.702250   1154.112549       33.972232
 -31.670525   1499.595337       38.724609
 -31.638800    938.225159       30.630461
 -31.607075   1106.000732       33.256589
 -31.575350    918.381897       30.304816
 -31.543626   1337.439575       36.571021
 -31.511901    953.107422       30.872438
 -31.480176   1341.126709       36.621397
 -31.448451    953.469482       30.878301
 -31.416726   1583.399292       39.791950
 -31.385001    927.256958       30.450894
 -31.353276   1135.917725       33.703379
 -31.321551    997.286560       31.579844
 -31.289826   1365.158203       36.948047
 -31.258101    613.144348       24.761752
 -31.226376    976.070923       31.242134
 -31.194652   1090.666992       33.025248
 -31.162927   1492.182129       38.628773
 -31.131202    738.003296       27.166216
 -31.099477    911.204224       30.186159
 -31.067752    674.253906       25.966400
 -31.036027   1476.742554       38.428408
 -31.004302    568.228943       23.837553
 -30.972577   1125.556396       33.549313
 -30.940852   1019.367188       31.927530
 -30.909127   1591.430298       39.892735
 -30.877402    685.749695       26.186823
 -30.845678   1199.005493       34.626659
 -30.813953    932.470276       30.536376
 -30.782228   1470.247925       38.343812
 -30.750503    832.968628       28.861196
 -30.718778    639.915894       25.296559
 -30.687053    920.841003       30.345362
 -30.655328   1308.902344       36.178755
 -30.623603    479.069305       21.887652
 -30.591878   1551.140625       39.384523
 -30.560153    687.332275       26.217023
 -30.528428   1493.011963       38.639513
 -30.496704    884.620972       29.742578
 -30.464979   1215.184814       34.859501
 -30.433254   1125.113770       33.542716
 -30.401529   1577.578857       39.718747
 -30.369804    773.056396       27.803892
 -30.338079   1252.343262       35.388462
 -30.306354   1026.478271       32.038700
 -30.274629   1523.564453       39.032864
 -30.242904    706.024048       26.571113
 -30.211179   1209.021729       34.770990
 -30.179454    923.914429       30.395961
 -30.147729   1365.352417       36.950675
 -30.116005    796.633789       28.224702
 -30.084280   1314.180786       36.251631
 -30.052555    555.898926       23.577509
 -30.020830   1380.378906       37.153451
 -29.989105    823.664062       28.699548
 -29.957380   1355.530640       36.817532
 -29.925655    809.571899       28.452977
 -29.893930   1509.583008       38.853353
 -29.862205    950.225647       30.825730
 -29.830480   1148.796265       33.893897
 -29.798755    803.796448       28.351304
 -29.767031   1678.213135       40.966000
 -29.735306    934.168823       30.564175
 -29.703581   1170.180664       34.207904
 -29.671856   1049.592041       32.397408
 -29.640131   1399.884521       37.415031
 -29.608406    902.323120       30.038694
 -29.576681   1227.866089       35.040920
 -29.544956    708.286743       26.613657
 -29.513231   1601.958252       40.024471
 -29.481506    752.255615       27.427279
 -29.449781   1237.848511       35.183071
 -29.418057   1030.780884       32.105776
 -29.386332   1658.561523       40.725441
 -29.354607    913.490417       30.224004
 -29.322882   1272.159180       35.667341
 -29.291157    951.925293       30.853287
 -29.259432   1442.500977       37.980271
 -29.227707    721.791687       26.866181
 -29.195982   1319.097168       36.319377
 -29.164257   1200.734985       34.651623
 -29.132532   1500.275391       38.733389
 -29.100807    716.002197       26.758217
 -29.069083    979.687988       31.299968
 -29.037358    876.533936       29.606316
 -29.005633   1197.964355       34.611622
 -28.973908    386.616608       19.662569
 -28.942183   1117.981201       33.436226
 -28.910458    841.733459       29.012643
 -28.878733   1385.723999       37.225314
 -28.847008    788.108521       28.073271
 -28.815283   1151.751343       33.937462
 -28.783558    851.686890       29.183675
 -28.751833   1358.341797       36.855689
 -28.720108    812.122803       28.497768
 -28.688384   1158.278320       34.033488
 -28.656659    887.168823       29.785379
 -28.624934   1438.905029       37.932902
 -28.593209    737.637756       27.159487
 -28.561484   1017.057129       31.891333
 -28.529759   1140.380615       33.769522
 -28.498034   1517.847412       38.959561
 -28.466309    847.297485       29.108375
 -28.434584   1417.527344       37.650064
 -28.402859   1150.835449       33.923966
 -28.371134   1586.184326       39.826930
 -28.339410    892.667480       29.877541
 -28.307685   1173.865723       34.261724
 -28.275960   1152.441406       33.947627
 -28.244235   1522.251953       39.016047
 -28.212510    910.986755       30.182557
 -28.180785   1263.607910       35.547263
 -28.149060    903.699402       30.061593
 -28.117335   1456.394775       38.162741
 -28.085610    811.551514       28.487743
 -28.053885   1118.427979       33.442906
 -28.022160    959.904480       30.982325
 -27.990436   1283.753662       35.829508
 -27.958711    649.122681       25.477886
 -27.926986   1096.590576       33.114809
 -27.895261   1120.382324       33.472113
 -27.863536   1410.476929       37.556317
 -27.831811    615.178223       24.802787
 -27.800086   1157.346558       34.019797
 -27.768361    971.426819       31.167721
 -27.736636   1752.922485       41.867917
 -27.704911    860.893188       29.340981
 -27.673186   1225.683838       35.009768
 -27.641462    800.869629       28.299640
 -27.609737   1627.331299       40.340195
 -27.578012    952.557312       30.863527
 -27.546287   1149.073975       33.897994
 -27.514562    836.704712       28.925849
 -27.482837   1409.396362       37.541928
 -27.451112    773.710022       27.815643
 -27.419387   1258.152100       35.470440
 -27.387662   1074.060913       32.772869
 -27.355937   1404.231567       37.473078
 -27.324212    699.434631       26.446826
 -27.292487   1147.587891       33.876067
 -27.260763    883.280396       29.720034
 -27.229038   1378.516602       37.128380
 -27.197313    820.194580       28.639039
 -27.165588    987.894653       31.430791
 -27.133863    772.916260       27.801372
 -27.102138   1219.556641       34.922151
 -27.070413    951.606506       30.848120
 -27.038688   1082.561768       32.902306
 -27.006963   1102.378418       33.202085
 -26.975238   1333.846313       36.521861
 -26.943513   1013.082275       31.828953
 -26.911789   1201.352051       34.660526
 -26.880064    992.139648       31.498248
 -26.848339   1388.091309       37.257097
 -26.816614    804.725464       28.367683
 -26.784889   1145.180420       33.840514
 -26.753164    977.921021       31.271729
 -26.721439   1584.290283       39.803144
 -26.689714    904.659180       30.077553
 -26.657989   1384.355225       37.206924
 -26.626264   1286.916260       35.873615
 -26.594539   1324.701172       36.396444
 -26.562815    710.481445       26.654858
 -26.531090   1367.246582       36.976298
 -26.499365   1024.115356       32.001802
 -26.467640   1555.535400       39.440276
 -26.435915    737.970947       27.165621
 -26.404190   1458.256348       38.187123
 -26.372465    899.399841       29.989996
 -26.340740   1457.326660       38.174948
 -26.309015    962.522034       31.024539
 -26.277290   1210.071777       34.786086
 -26.245565    902.288818       30.038123
 -26.213841   1595.924316       39.949021
 -26.182116    730.238403       27.022924
 -26.150391   1376.474854       37.100874
 -26.118666    756.149414       27.498171
 -26.086941   1601.073975       40.013422
 -26.055216    852.781372       29.202421
 -26.023491   1437.951172       37.920327
 -25.991766   1049.513062       32.396189
 -25.960041   1856.806152       43.090674
 -25.928316    874.654907       29.574565
 -25.896591   1378.311523       37.125618
 -25.864866    839.484802       28.973864
 -25.833142   1517.248657       38.951876
 -25.801417    904.930847       30.082069
 -25.769692   1129.264893       33.604537
 -25.737967   1097.424561       33.127399
 -25.706242   1439.769653       37.944297
 -25.674517    917.559875       30.291251
 -25.642792   1174.138428       34.265703
 -25.611067    677.357666       26.026096
 -25.579342   1720.564209       41.479684
 -25.547617    922.540588       30.373353
 -25.515892   1229.036865       35.057622
 -25.484168   1235.575439       35.150753
 -25.452443   1631.786621       40.395379
 -25.420718   1124.796143       33.537981
 -25.388993   1403.275879       37.460324
 -25.357268   1237.980835       35.184952
 -25.325543   1603.768311       40.047076
 -25.293818    869.380249       29.485255
 -25.262093   1367.589844       36.980939
 -25.230368   1002.403137       31.660751
 -25.198643   1508.354492       38.837540
 -25.166918    895.594116       29.926479
 -25.135194   1402.056885       37.444050
 -25.103469   1047.711670       32.368375
 -25.071744   1384.362549       37.207023
 -25.040019    783.657959       27.993891
 -25.008294   1367.862305       36.984623
 -24.976569   1099.671875       33.161301
 -24.944844   1712.439819       41.381636
 -24.913119    515.686096       22.708723
 -24.881394   1340.746338       36.616203
 -24.849669   1006.557495       31.726290
 -24.817944   1606.582520       40.082197
 -24.786220    941.869141       30.689887
 -24.754495   1141.390015       33.784464
 -24.722770   1239.459351       35.205956
 -24.691045   1790.214844       42.310931
 -24.659320    899.429443       29.990489
 -24.627595   1274.141846       35.695124
 -24.595870    905.728821       30.095329
 -24.564145   1423.308105       37.726756
 -24.532420   1103.230469       33.214913
 -24.500695    986.914490       31.415195
 -24.468970   1208.374268       34.761678
 -24.437245   1646.425781       40.576173
 -24.405521    787.199829       28.057082
 -24.373796   1011.878052       31.810031
 -24.342071   1213.212891       34.831206
 -24.310346   1471.192383       38.356126
 -24.278621    828.285522       28.779950
 -24.246896   1461.048340       38.223662
 -24.215171   1230.161621       35.073660
 -24.183446   1435.652344       37.890003
 -24.151721    726.810547       26.959424
 -24.119996   1053.154053       32.452335
 -24.088271    892.737427       29.878712
 -24.056547   1081.873291       32.891842
 -24.024822    776.646729       27.868382
 -23.993097   1268.397949       35.614575
 -23.961372    914.891479       30.247173
 -23.929647   1110.977295       33.331326
 -23.897922    699.797363       26.453683
 -23.866197   1218.281616       34.903891
 -23.834472    775.302979       27.844263
 -23.802747   1255.987305       35.439911
 -23.771022    726.714233       26.957638
 -23.739297   1153.265503       33.959763
 -23.707573    866.039124       29.428543
 -23.675848   1651.496460       40.638608
 -23.644123    649.935486       25.493832
 -23.612398   1370.968018       37.026585
 -23.580673   1002.128723       31.656417
 -23.548948   1568.002197       39.598007
 -23.517223    589.416870       24.277909
 -23.485498   1269.157837       35.625242
 -23.453773    961.318970       31.005144
 -23.422048   1605.521729       40.068962
 -23.390323    588.803955       24.265283
 -23.358599   1089.023438       33.000355
 -23.326874   1062.962769       32.603110
 -23.295149   1583.425415       39.792278
 -23.263424    953.968140       30.886375
 -23.231699   1307.541260       36.159940
 -23.199974    636.873901       25.236361
 -23.168249   1569.331543       39.614789
 -23.136524    736.074463       27.130692
 -23.104799   1037.809448       32.215050
 -23.073074    857.072144       29.275794
 -23.041349   1504.419556       38.786848
 -23.009624    572.646851       23.930041
 -22.977900   1312.496338       36.228391
 -22.946175   1023.467590       31.991680
 -22.914450   1587.166992       39.839264
 -22.882725    796.458130       28.221590
 -22.851000   1455.831787       38.155364
 -22.819275    946.118896       30.759046
 -22.787550   1558.931152       39.483302
 -22.755825    814.029297       28.531199
 -22.724100   1195.544678       34.576649
 -22.692375    953.755127       30.882926
 -22.660650   1328.762207       36.452191
 -22.628926    978.783325       31.285513
 -22.597201   1335.521484       36.544787
 -22.565476   1104.449463       33.233258
 -22.533751   1740.982422       41.725081
 -22.502026    783.381348       27.988950
 -22.470301   1213.262939       34.831924
 -22.438576   1100.785522       33.178088
 -22.406851   1517.867065       38.959813
 -22.375126    594.605713       24.384538
 -22.343401   1019.167847       31.924408
 -22.311676   1169.422119       34.196814
 -22.279952   1513.920166       38.909127
 -22.248227    833.221680       28.865579
 -22.216502   1500.924316       38.741764
 -22.184777    998.313354       31.596097
 -22.153052   1361.703613       36.901268
 -22.121327    665.927063       25.805563
 -22.089602   1272.751343       35.675641
 -22.057877    992.692444       31.507022
 -22.026152   1483.781860       38.519889
 -21.994427    727.521301       26.972603
 -21.962702   1393.978149       37.336017
 -21.930978    738.090454       27.167820
 -21.899253   1247.996460       35.326993
 -21.867528    759.518921       27.559371
 -21.835803   1167.642456       34.170784
 -21.804078    960.339905       30.989351
 -21.772353   1334.336670       36.528573
 -21.740628    874.655762       29.574580
 -21.708903   1122.150879       33.498521
 -21.677178   1077.387207       32.823577
 -21.645453   1327.065674       36.428913
 -21.613728    902.933594       30.048853
 -21.582003   1161.620605       34.082556
 -21.550279    927.889954       30.461286
 -21.518554   1311.455322       36.214021
 -21.486829    648.742065       25.470415
 -21.455104   1371.629883       37.035522
 -21.423379    868.206482       29.465344
 -21.391654   1457.138184       38.172479
 -21.359929    893.597168       29.893096
 -21.328204   1130.934570       33.629371
 -21.296479    746.270447       27.317951
 -21.264754   1576.012085       39.699019
 -21.233029    745.262756       27.299501
 -21.201305   1258.838501       35.480114
 -21.169580   1094.153809       33.077996
 -21.137855   1486.142578       38.550520
 -21.106130    771.984253       27.784605
 -21.074405   1161.396606       34.079269
 -21.042680    901.400024       30.023325
 -21.010955   1489.051025       38.588224
 -20.979230    823.784790       28.701651
 -20.947505   1362.658325       36.914202
 -20.915780    854.726440       29.235705
 -20.884055   1833.690186       42.821609
 -20.852331    587.607056       24.240608
 -20.820606   1392.238159       37.312708
 -20.788881   1061.910400       32.586967
 -20.757156   1405.745850       37.493277
 -20.725431    679.852417       26.073980
 -20.693706   1209.179932       34.773265
 -20.661981    932.699158       30.540124
 -20.630256   1406.844238       37.507922
 -20.598531    802.278564       28.324522
 -20.566806   1227.394409       35.034189
 -20.535081    997.120850       31.577220
 -20.503357   1406.642212       37.505229
 -20.471632    806.335449       28.396046
 -20.439907   1145.373535       33.843368
 -20.408182    944.951172       30.740058
 -20.376457   1415.697266       37.625753
 -20.344732    811.460083       28.486138
 -20.313007   1074.510010       32.779719
 -20.281282   1006.057861       31.718415
 -20.249557   1651.730469       40.641487
 -20.217832    819.440552       28.625872
 -20.186107   1274.490479       35.700007
 -20.154382   1017.868164       31.904046
 -20.122658   1339.446655       36.598452
 -20.090933    716.309509       26.763959
 -20.059208   1158.720947       34.039990
 -20.027483    988.200500       31.435657
 -19.995758   1171.442505       34.226342
 -19.964033    956.911682       30.933989
 -19.932308   1450.270020       38.082411
 -19.900583   1013.609863       31.837240
 -19.868858   1603.362305       40.042007
 -19.837133    701.810669       26.491709
 -19.805408    922.793335       30.377514
 -19.773684    973.901917       31.207402
 -19.741959   1340.816895       36.617167
 -19.710234    770.737671       27.762163
 -19.678509   1557.797119       39.468939
 -19.646784   1052.570068       32.443336
 -19.615059   1547.458252       39.337746
 -19.583334    720.069092       26.834103
 -19.551609   1367.273560       36.976662
 -19.519884    861.378418       29.349249
 -19.488159   1458.351074       38.188363
 -19.456434    764.387573       27.647560
 -19.424710   1142.884399       33.806573
 -19.392985    922.900391       30.379276
 -19.361260   1699.359741       41.223291
 -19.329535    945.575195       30.750206
 -19.297810   1079.786987       32.860112
 -19.266085    928.253845       30.467259
 -19.234360   1565.375977       39.564833
 -19.202635    617.632996       24.852223
 -19.170910   1336.052734       36.552055
 -19.139185   1108.984375       33.301417
 -19.107460   1648.194092       40.597957
 -19.075736    754.861084       27.474735
 -19.044011   1308.732178       36.176404
 -19.012286    866.691040       29.439617
 -18.980561   1649.633057       40.615675
 -18.948836    696.566040       26.392538
 -18.917111   1061.645752       32.582906
 -18.885386    995.633911       31.553667
 -18.853661   1757.669434       41.924568
 -18.821936   1009.519165       31.772931
 -18.790211   1258.930054       35.481404
 -18.758486   1256.528320       35.447543
 -18.726761   1661.150146       40.757210
 -18.695037    754.922974       27.475862
 -18.663312   1073.504517       32.764379
 -18.631587   1010.059570       31.781434
 -18.599862   1400.320312       37.420854
 -18.568137    799.491760       28.275285
 -18.536412   1013.887268       31.841597
 -18.504687    745.396362       27.301948
 -18.472962   1526.581421       39.071491
 -18.441237    880.338989       29.670507
 -18.409512   1246.974854       35.312531
 -18.377787   1043.303101       32.300203
 -18.346063   1438.931152       37.933246
 -18.314338    607.734741       24.652277
 -18.282613   1128.977783       33.600265
 -18.250888    928.670410       30.474094
 -18.219163   1443.562988       37.994249
 -18.187438    657.144836       25.634836
 -18.155713   1384.668091       37.211129
 -18.123988   1176.166504       34.295284
 -18.092263   1585.277100       39.815538
 -18.060538    673.295715       25.947942
 -18.028813   1215.748047       34.867579
 -17.997089    735.961365       27.128608
 -17.965364   1384.080566       37.203233
 -17.933639   1291.667236       35.939772
 -17.901914   1138.797119       33.746068
 -17.870189    774.358276       27.827294
 -17.838464   1670.013916       40.865804
 -17.806739    800.795532       28.298331
 -17.775014   1247.706787       35.322893
 -17.743289    996.029907       31.559941
 -17.711564   1540.282227       39.246429
 -17.679839    760.389038       27.575153
 -17.648115   1173.102295       34.250581
 -17.616390    942.841675       30.705727
 -17.584665   1311.659546       36.216841
 -17.552940    783.540344       27.991791
 -17.521215   1111.325439       33.336548
 -17.489490    830.186035       28.812949
 -17.457765   1552.895020       39.406789
 -17.426040    557.308716       23.607387
 -17.394315    981.074646       31.322111
 -17.362590   1047.198242       32.360443
 -17.330865   1442.856689       37.984953
 -17.299140    865.628479       29.421565
 -17.267416   1169.186279       34.193366
 -17.235691    817.622681       28.594102
 -17.203966   1449.244629       38.068946
 -17.172241    443.956604       21.070278
 -17.140516   1011.173340       31.798952
 -17.108791    770.921570       27.765474
 -17.077066   1478.482666       38.451042
 -17.045341    720.950134       26.850515
 -17.013616   1056.680054       32.506616
 -16.981891    731.524292       27.046706
 -16.950166   1270.326904       35.641646
 -16.918442    529.237976       23.005173
 -16.886717   1204.771973       34.709825
 -16.854992    715.038574       26.740205
 -16.823267   1309.439697       36.186181
 -16.791542    731.064575       27.038206
 -16.759817   1231.329346       35.090303
 -16.728092    848.526428       29.129477
 -16.696367   1454.262695       38.134796
 -16.664642    447.165619       21.146291
 -16.632917   1322.493164       36.366099
 -16.601192    781.110779       27.948359
 -16.569468   1470.829346       38.351393
 -16.537743    540.867798       23.256565
 -16.506018   1143.740479       33.819232
 -16.474293    338.425140       18.396335
 -16.442568   1297.215088       36.016872
 -16.410843    614.424438       24.787586
 -16.379118   1116.134277       33.408596
 -16.347393    765.341187       27.664800
 -16.315668   1479.165283       38.459918
 -16.283943    647.396729       25.443992
 -16.252218    974.821777       31.222136
 -16.220494   1040.924927       32.263368
 -16.188769   1401.128906       37.431656
 -16.157044    588.534668       24.259733
 -16.125319   1485.568848       38.543078
 -16.093594    627.808472       25.056106
 -16.061869   1493.535645       38.646289
 -16.030144    595.126587       24.395216
 -15.998419   1183.830078       34.406832
 -15.966694    938.277283       30.631312
 -15.934969   1093.523560       33.068468
 -15.903244    685.314209       26.178507
 -15.871519   1104.710327       33.237183
 -15.839795    762.656677       27.616239
 -15.808070   1643.239014       40.536885
 -15.776345    779.606140       27.921428
 -15.744620   1283.715088       35.828970
 -15.712895    672.122559       25.925327
 -15.681170   1631.407227       40.390682
 -15.649445    850.074951       29.156045
 -15.617720   1452.619385       38.113244
 -15.585995    597.937744       24.452766
 -15.554270   1741.135010       41.726910
 -15.522545    749.110107       27.369876
 -15.490821   1278.195557       35.751861
 -15.459096    797.948730       28.247986
 -15.427371   1551.199219       39.385267
 -15.395646    777.800293       27.889071
 -15.363921   1017.851074       31.903778
 -15.332196    773.177856       27.806076
 -15.300471   1612.454346       40.155378
 -15.268746    713.426758       26.710050
 -15.237021   1636.505859       40.453750
 -15.205296    934.909790       30.576295
 -15.173571   1471.838135       38.364543
 -15.141847    737.253296       27.152409
 -15.110122   1268.154053       35.611151
 -15.078397   1087.690308       32.980150
 -15.046672   1541.718262       39.264720
 -15.014947    891.611633       29.859867
 -14.983222   1112.119995       33.348463
 -14.951497    926.363037       30.436213
 -14.919772   1448.397461       38.057817
 -14.888047    785.389954       28.024810
 -14.856322   1210.673584       34.794735
 -14.824597   1153.618652       33.964962
 -14.792872   1581.356445       39.766273
 -14.761148    615.134766       24.801911
 -14.729423   1324.976562       36.400228
 -14.697698    881.530518       29.690580
 -14.665973   1498.228882       38.706962
 -14.634248    756.955811       27.512830
 -14.602523   1118.757690       33.447835
 -14.570798    736.686401       27.141968
 -14.539073   1618.867798       40.235156
 -14.507348    760.241699       27.572481
 -14.475623   1191.787598       34.522277
 -14.443898    838.928345       28.964260
 -14.412174   1396.222168       37.366056
 -14.380449    807.506836       28.416665
 -14.348724   1250.734375       35.365723
 -14.316999   1202.926270       34.683227
 -14.285274   1583.476807       39.792924
 -14.253549    922.022705       30.364827
 -14.221824   1123.263184       33.515119
 -14.190099    824.021240       28.705770
 -14.158374   1339.529053       36.599577
 -14.126649    949.395264       30.812258
 -14.094924    994.361877       31.533504
 -14.063200    766.763306       27.690491
 -14.031475   1037.528809       32.210694
 -13.999750    626.845032       25.036873
 -13.968025    910.618225       30.176451
 -13.936300    932.040833       30.529344
 -13.904575   1243.293579       35.260368
 -13.872850    786.163086       28.038600
 -13.841125   1297.121216       36.015569
 -13.809400    787.025452       28.053974
 -13.777675   1499.705566       38.726032
 -13.745950    879.387939       29.654476
 -13.714226   1229.358154       35.062204
 -13.682501   1108.062866       33.287578
 -13.650776   1654.623779       40.677067
 -13.619051    846.602905       29.096441
 -13.587326   1286.537109       35.868330
 -13.555601   1039.721680       32.244716
 -13.523876   1512.155029       38.886438
 -13.492151    459.737610       21.441493
 -13.460426   1192.303467       34.529748
 -13.428701   1029.348633       32.083464
 -13.396976   1502.274902       38.759191
 -13.365251    653.689392       25.567350
 -13.333527   1420.360107       37.687665
 -13.301802    908.636719       30.143602
 -13.270077   1428.475098       37.795173
 -13.238352   1014.409668       31.849799
 -13.206627   1163.590088       34.111436
 -13.174902   1067.291748       32.669431
 -13.143177   1599.701660       39.996271
 -13.111452    836.291382       28.918703
 -13.079727   1199.497803       34.633767
 -13.048002    965.851318       31.078149
 -13.016277   1428.771729       37.799097
 -12.984553    694.874695       26.360476
 -12.952828   1184.657959       34.418861
 -12.921103    903.087585       30.051416
 -12.889378   1624.120972       40.300384
 -12.857653    947.354980       30.779132
 -12.825928   1658.804443       40.728423
 -12.794203   1038.659912       32.228247
 -12.762478   1690.202637       41.112074
 -12.730753    844.085205       29.053144
 -12.699028   1404.716431       37.479547
 -12.667303    878.816040       29.644832
 -12.635579   1443.540283       37.993951
 -12.603854    609.743958       24.692994
 -12.572129   1368.259521       36.989992
 -12.540404    920.611572       30.341582
 -12.508679   1175.262329       34.282099
 -12.476954    610.332764       24.704914
 -12.445229   1216.239014       34.874618
 -12.413504    874.698120       29.575296
 -12.381779   1433.329102       37.859333
 -12.350054    777.001465       27.874746
 -12.318329   1435.726318       37.890979
 -12.286605   1185.147583       34.425973
 -12.254880   1362.004028       36.905339
 -12.223155    695.388794       26.370226
 -12.191430   1268.335938       35.613704
 -12.159705   1013.612122       31.837276
 -12.127980   1522.499878       39.019224
 -12.096255    766.728516       27.689863
 -12.064530   1166.285645       34.150925
 -12.032805   1025.600586       32.024999
 -12.001080   1453.300049       38.122173
 -11.969355    833.557129       28.871389
 -11.937630   1299.222290       36.044726
 -11.905906    946.463867       30.764653
 -11.874181   1739.547119       41.707878
 -11.842456    561.200806       23.689677
 -11.810731   1498.966675       38.716491
 -11.779006   1194.016846       34.554549
 -11.747281   1434.967529       37.880965
 -11.715556    743.120789       27.260242
 -11.683831   1416.934082       37.642185
 -11.652106   1005.780151       31.714037
 -11.620381   1567.418945       39.590642
 -11.588656    774.133789       27.823260
 -11.556932   1443.430542       37.992506
 -11.525207    877.772888       29.627232
 -11.493482   1582.485718       39.780469
 -11.461757    611.164246       24.721736
 -11.430032   1169.045044       34.191301
 -11.398307    907.400391       30.123087
 -11.366582   1471.617432       38.361666
 -11.334857    835.633545       28.907327
 -11.303132   1570.642334       39.631330
 -11.271407   1195.960205       34.582658
 -11.239682   1565.628174       39.568020
 -11.207958    859.968262       29.325215
 -11.176233   1173.722168       34.259629
 -11.144508    797.015381       28.231461
 -11.112783   1582.995239       39.786873
 -11.081058    719.876282       26.830510
 -11.049333   1337.812012       36.576113
 -11.017608   1082.829834       32.906380
 -10.985883   1519.762451       38.984131
 -10.954158    753.984131       27.458771
 -10.922433   1586.784180       39.834460
 -10.890708    808.799438       28.439399
 -10.858984   1283.418945       35.824837
 -10.827259   1031.454102       32.116259
 -10.795534   1313.368530       36.240427
 -10.763809   1093.409912       33.066749
 -10.732084   1644.603760       40.553715
 -10.700359    966.414795       31.087213
 -10.668634   1489.139404       38.589369
 -10.636909   1028.705566       32.073440
 -10.605184   1332.343262       36.501278
 -10.573459    391.278748       19.780767
 -10.541734   1172.607910       34.243363
 -10.510009    850.910278       29.170366
 -10.478285   1661.100586       40.756602
 -10.446560    721.573364       26.862118
 -10.414835   1403.851562       37.468007
 -10.383110    995.343018       31.549057
 -10.351385   1835.350830       42.840995
 -10.319660    505.115906       22.474784
 -10.287935   1424.137817       37.737751
 -10.256210    821.164917       28.655975
 -10.224485   1256.394043       35.445649
 -10.192760    836.393311       28.920465
 -10.161035   1064.608154       32.628334
 -10.129311    755.126404       27.479563
 -10.097586   1379.768799       37.145239
 -10.065861    566.763245       23.806790
 -10.034136    954.519836       30.895304
 -10.002411    736.975220       27.147288
  -9.970686   1224.940430       34.999149
  -9.938961    675.017456       25.981098
  -9.907236   1087.865112       32.982800
  -9.875511   1300.168213       36.057845
  -9.843786   1343.717041       36.656746
  -9.812061    776.676392       27.868914
  -9.780337   1184.590454       34.417880
  -9.748612    655.604004       25.604765
  -9.716887   1467.818970       38.312126
  -9.685162    681.366089       26.102990
  -9.653437   1127.095337       33.572241
  -9.621712    691.502380       26.296433
  -9.589987   1461.880005       38.234539
  -9.558262    367.027344       19.157958
  -9.526537   1501.484009       38.748987
  -9.494812    737.309326       27.153440
  -9.463087   1383.805664       37.199538
  -9.431363    839.681885       28.977265
  -9.399638   1218.921875       34.913062
  -9.367913    776.488281       27.865539
  -9.336188   1437.686768       37.916840
  -9.304463    644.892578       25.394735
  -9.272738   1325.788574       36.411380
  -9.241013    585.641479       24.200031
  -9.209288   1417.953247       37.655720
  -9.177563   1019.244202       31.925604
  -9.145838   1070.595581       32.719957
  -9.114113    776.407471       27.864089
  -9.082388   1336.844238       36.562881
  -9.050664    783.645386       27.993667
  -9.018939    904.191956       30.069785
  -8.987214    960.816895       30.997047
  -8.955489   1183.380615       34.400300
  -8.923764    769.823853       27.745700
  -8.892039   1021.677246       31.963686
  -8.860314    987.164062       31.419167
  -8.828589   1070.551270       32.719280
  -8.796864    587.301147       24.234297
  -8.765139   1072.375488       32.747145
  -8.733414    797.855530       28.246337
  -8.701690   1656.546509       40.700694
  -8.669965    839.746216       28.978375
  -8.638240    995.598877       31.553112
  -8.606515    762.859009       27.619902
  -8.574790   1340.108887       36.607498
  -8.543065    715.388794       26.746753
  -8.511340   1245.409546       35.290361
  -8.479615    761.637573       27.597782
  -8.447890   1395.963623       37.362597
  -8.416165    424.017242       20.591679
  -8.384440   1131.959717       33.644609
  -8.352716    677.254456       26.024113
  -8.320991   1259.987793       35.496307
  -8.289266    759.193298       27.553463
  -8.257541   1310.563232       36.201702
  -8.225816    761.928894       27.603060
  -8.194091   1666.403198       40.821602
  -8.162366    866.740356       29.440454
  -8.130641   1199.317139       34.631158
  -8.098916    845.383179       29.075474
  -8.067191   1400.963257       37.429444
  -8.035466    656.315308       25.618652
  -8.003742    841.641846       29.011064
  -7.972017    773.202148       27.806513
  -7.940292   1589.888550       39.873407
  -7.908567   1128.095703       33.587136
  -7.876842   1136.283936       33.708811
  -7.845117   1011.059692       31.797165
  -7.813392   1580.987549       39.761634
  -7.781667    969.897461       31.143177
  -7.749942   1221.048096       34.943499
  -7.718217    970.490967       31.152704
  -7.686492   1466.614136       38.296398
  -7.654767    874.516602       29.572227
  -7.623043   1014.892517       31.857378
  -7.591318   1003.121582       31.672095
  -7.559593   1799.877441       42.424962
  -7.527868    816.973145       28.582742
  -7.496143   1318.349854       36.309088
  -7.464418    582.678284       24.138730
  -7.432693   1442.992188       37.986737
  -7.400968    440.313507       20.983649
  -7.369243   1204.106689       34.700240
  -7.337518    744.056152       27.277393
  -7.305793   1539.468994       39.236068
  -7.274069    499.329773       22.345688
  -7.242344   1386.023926       37.229342
  -7.210619    769.828064       27.745776
  -7.178894   1321.794067       36.356486
  -7.147169    622.904114       24.958047
  -7.115444   1117.928711       33.435441
  -7.083719   1071.414307       32.732466
  -7.051994   1606.317139       40.078886
  -7.020269    976.705383       31.252286
  -6.988544   1212.651855       34.823151
  -6.956819    758.457153       27.540101
  -6.925095   1494.099976       38.653589
  -6.893370    865.564087       29.420471
  -6.861645   1039.360840       32.239120
  -6.829920    994.582153       31.536997
  -6.798195   1571.605225       39.643476
  -6.766470    597.661377       24.447114
  -6.734745   1437.284912       37.911541
  -6.703020    836.227234       28.917594
  -6.671295   1519.149658       38.976270
  -6.639570    769.428589       27.738576
  -6.607845   1200.787109       34.652375
  -6.576121    698.549988       26.430096
  -6.544396   1244.391113       35.275928
  -6.512671    310.807098       17.629722
  -6.480946   1004.653687       31.696272
  -6.449221    523.604614       22.882408
  -6.417496   1338.177490       36.581108
  -6.385771    570.115845       23.877099
  -6.354046   1169.527344       34.198353
  -6.322321    705.747314       26.565905
  -6.290596   1289.059326       35.903472
  -6.258871    667.534485       25.836689
  -6.227146   1073.359375       32.762164
  -6.195422    963.739136       31.044148
  -6.163697   1673.164062       40.904328
  -6.131972    775.796021       27.853115
  -6.100247   1435.158447       37.883485
  -6.068522    676.898743       26.017278
  -6.036797   1308.919067       36.178987
  -6.005072    416.825867       20.416314
  -5.973347    868.276184       29.466527
  -5.941622    769.282349       27.735940
  -5.909897   1320.900146       36.344190
  -5.878172    584.936035       24.185451
  -5.846448    997.535400       31.583784
  -5.814723    761.982178       27.604025
  -5.782998   1570.887817       39.634427
  -5.751273    577.778381       24.037021
  -5.719548   1099.641846       33.160848
  -5.687823    884.470947       29.740056
  -5.656098   1442.597900       37.981547
  -5.624373    606.897705       24.635294
  -5.592648   1236.896729       35.169543
  -5.560923    783.288269       27.987288
  -5.529198   1673.773926       40.911782
  -5.497474    603.932861       24.575046
  -5.465749   1182.276001       34.384241
  -5.434024    580.097290       24.085209
  -5.402299   1393.721191       37.332575
  -5.370574    681.946106       26.114098
  -5.338849   1337.382568       36.570242
  -5.307124    881.731201       29.693959
  -5.275399   1419.113037       37.671117
  -5.243674    868.036499       29.462459
  -5.211949   1357.419434       36.843174
  -5.180224    722.483704       26.879057
  -5.148500   1162.989014       34.102625
  -5.116775    752.488464       27.431523
  -5.085050   1320.899536       36.344182
  -5.053325    900.704041       30.011732
  -5.021600   1568.534668       39.604730
  -4.989875    836.167725       28.916565
  -4.958150   1265.242554       35.570248
  -4.926425    790.147217       28.109557
  -4.894700   1279.356934       35.768099
  -4.862975    746.945190       27.330298
  -4.831250   1245.708984       35.294603
  -4.799525    829.950806       28.808867
  -4.767801   1351.502441       36.762786
  -4.736076    775.731079       27.851949
  -4.704351   1471.841064       38.364581
  -4.672626    904.466431       30.074348
  -4.640901   1634.229004       40.425598
  -4.609176    908.210510       30.136531
  -4.577451   1444.961060       38.012643
  -4.545726   1065.925293       32.648511
  -4.514001   1566.206055       39.575321
  -4.482276    779.505920       27.919633
  -4.450551   1188.880737       34.480150
  -4.418827    820.254639       28.640088
  -4.387102   1504.687378       38.790300
  -4.355377    705.436890       26.560062
  -4.323652   1041.837402       32.277506
  -4.291927   1051.523315       32.427200
  -4.260202   1785.947388       42.260471
  -4.228477    813.836426       28.527818
  -4.196752   1094.844482       33.088434
  -4.165027    778.222900       27.896647
  -4.133302   1601.799561       40.022488
  -4.101577    609.927490       24.696710
  -4.069853   1291.611084       35.938991
  -4.038128    900.346069       30.005767
  -4.006403   1509.609863       38.853698
  -3.974678    692.909180       26.323168
  -3.942953   1016.626831       31.884586
  -3.911228   1020.832031       31.950462
  -3.879503   1584.870117       39.810427
  -3.847778    788.524963       28.080687
  -3.816053   1036.672607       32.197401
  -3.784328    819.848389       28.632995
  -3.752603   1431.940186       37.840986
  -3.720879    534.573853       23.120853
  -3.689154    995.677734       31.554362
  -3.657429    959.621765       30.977762
  -3.625704   1435.568726       37.888900
  -3.593979    788.501648       28.080272
  -3.562254   1270.578857       35.645180
  -3.530529   1121.346313       33.486509
  -3.498804   1431.728516       37.838189
  -3.467079    828.025146       28.775426
  -3.435354   1070.738037       32.722134
  -3.403629    953.128235       30.872775
  -3.371904   1446.851562       38.037502
  -3.340180    701.127808       26.478818
  -3.308455   1481.741699       38.493398
  -3.276730   1162.209351       34.091192
  -3.245005   1449.258301       38.069125
  -3.213280    763.363525       27.629034
  -3.181555   1080.675415       32.873628
  -3.149830    785.274414       28.022748
  -3.118105   1759.819702       41.950205
  -3.086380    694.866943       26.360329
  -3.054655   1120.293213       33.470781
  -3.022930    980.114624       31.306782
  -2.991206   1588.581787       39.857017
  -2.959481    733.400208       27.081363
  -2.927756   1299.829956       36.053155
  -2.896031    918.765381       30.311143
  -2.864306   1604.859741       40.060701
  -2.832581   1091.738281       33.041463
  -2.800856   1080.806519       32.875622
  -2.769131    910.760620       30.178811
  -2.737406   1433.824707       37.865878
  -2.705681    960.278442       30.988360
  -2.673956   1338.610229       36.587023
  -2.642232    692.013977       26.306159
  -2.610507   1647.024414       40.583549
  -2.578782    943.076660       30.709553
  -2.547057   1045.675903       32.336912
  -2.515332    866.910034       29.443336
  -2.483607   1426.977051       37.775350
  -2.451882    397.218750       19.930347
  -2.420157   1146.003906       33.852679
  -2.388432    991.479492       31.487767
  -2.356707   1643.850586       40.544427
  -2.324982    661.056030       25.711010
  -2.293258   1570.236328       39.626208
  -2.261533    581.962280       24.123894
  -2.229808   1503.807617       38.778958
  -2.198083    795.367493       28.202260
  -2.166358   1498.993652       38.716839
  -2.134633    883.040466       29.715997
  -2.102908   1519.445312       38.980063
  -2.071183    698.072632       26.421064
  -2.039458   1140.140381       33.765965
  -2.007733   1236.815430       35.168387
  -1.976008   1446.705444       38.035581
  -1.944283    926.854858       30.444291
  -1.912559   1461.008789       38.223145
  -1.880834    903.949585       30.065754
  -1.849109   1498.750854       38.713704
  -1.817384    831.375244       28.833578
  -1.785659   1223.248779       34.974974
  -1.753934    879.243774       29.652045
  -1.722209   1505.345703       38.798785
  -1.690484   1068.328857       32.685300
  -1.658759   1388.280273       37.259633
  -1.627034    993.063965       31.512917
  -1.595309   1464.607422       38.270190
  -1.563585    899.155518       29.985922
  -1.531860   1315.869141       36.274911
  -1.500135    882.099243       29.700156
  -1.468410   1422.343628       37.713971
  -1.436685    639.047241       25.279384
  -1.404960   1259.365723       35.487543
  -1.373235    892.173340       29.869271
  -1.341510   1590.494873       39.881009
  -1.309785    691.351074       26.293556
  -1.278060   1284.657471       35.842119
  -1.246335    974.954956       31.224269
  -1.214611   1633.669189       40.418674
  -1.182886    725.491577       26.934951
  -1.151161   1571.372559       39.640542
  -1.119436    939.284119       30.647742
  -1.087711   1477.639160       38.440072
  -1.055986    815.929443       28.564479
  -1.024261   1274.141846       35.695124
  -0.992536    821.976929       28.670140
  -0.960811   1480.599854       38.478564
  -0.929086    918.081177       30.299854
  -0.897361   1387.028809       37.242836
  -0.865637   1110.020020       33.316963
  -0.833912   1317.355713       36.295395
  -0.802187    743.522888       27.267616
  -0.770462   1212.645996       34.823067
  -0.738737   1128.640381       33.595243
  -0.707012   1662.990112       40.779776
  -0.675287   1217.859619       34.897845
  -0.643562   1267.544800       35.602595
  -0.611837   1052.888672       32.448246
  -0.580112   1580.656006       39.757465
  -0.548387    778.893005       27.908655
  -0.516662   1211.110718       34.801016
  -0.484938   1075.437134       32.793858
  -0.453213   1618.208740       40.226965
  -0.421488    590.012329       24.290169
  -0.389763   1324.199707       36.389555
  -0.358038   1073.568604       32.765357
  -0.326313   1534.428589       39.171783
  -0.294588   1085.305054       32.943968
  -0.262863   1956.804688       44.235785
  -0.231138   2215.323242       47.067220
  -0.199413   4724.404785       68.734306
  -0.167688   6389.215820       79.932570
  -0.135964  10427.033203      102.112845
  -0.104239  14686.054688      121.186033
  -0.072514  19764.281250      140.585494
  -0.040789  23877.000000      154.521843
  -0.009064  25798.505859      160.619133
   0.022661  25483.671875      159.636061
   0.054386  23619.000000      153.684742
   0.086111  16892.474609      129.971053
   0.117836  12457.942383      111.615153
   0.149561   8384.615234       91.567545
   0.181286   5554.813965       74.530624
   0.213010   3171.406982       56.315246
   0.244735   2591.956299       50.911259
   0.276460   1857.934448       43.103764
   0.308185   1923.790894       43.861041
   0.339910   1086.296387       32.959011
   0.371635   1641.902832       40.520400
   0.403360   1035.959473       32.186324
   0.435085   2218.722168       47.103314
   0.466810   1463.371094       38.254034
   0.498535   2021.452881       44.960570
   0.530260   1470.997314       38.353583
   0.561984   2452.433105       49.522047
   0.593709   1837.767456       42.869190
   0.625434   2660.326416       51.578352
   0.657159   3104.474121       55.717808
   0.688884   5413.578125       73.577022
   0.720609   7492.346191       86.558340
   0.752334  12267.142578      110.757133
   0.784059  17544.195312      132.454503
   0.815784  26948.718750      164.160649
   0.847509  37322.382812      193.190017
   0.879234  54116.449219      232.629425
   0.910959  72671.523438      269.576563
   0.942683  88554.375000      297.580871
   0.974408 103340.484375      321.466148
   1.006133 115192.203125      339.399769
   1.037858 119535.500000      345.739063
   1.069583 117897.468750      343.362008
   1.101308 109407.101562      330.767443
   1.133033 100070.031250      316.338476
   1.164758  86232.218750      293.653229
   1.196483  72182.281250      268.667604
   1.228208  54807.343750      234.109683
   1.259933  39570.554688      198.923490
   1.291657  28775.367188      169.633037
   1.323382  21271.457031      145.847376
   1.355107  14991.490234      122.439741
   1.386832  12115.505859      110.070459
   1.418557  11616.285156      107.778872
   1.450282  13824.964844      117.579611
   1.482007  16512.578125      128.501277
   1.513732  20081.351562      141.708686
   1.545457  24279.031250      155.817301
   1.577182  27209.916016      164.954285
   1.608907  29400.648438      171.466173
   1.640631  33266.269531      182.390432
   1.672356  35184.316406      187.574829
   1.704081  36832.101562      191.916913
   1.735806  34130.468750      184.744333
   1.767531  31035.996094      176.170361
   1.799256  25854.199219      160.792410
   1.830981  22734.136719      150.778436
   1.862706  18574.359375      136.287781
   1.894431  15987.316406      126.440960
   1.926156  12849.214844      113.354377
   1.957881  11932.261719      109.234892
   1.989605  11055.142578      105.143438
   2.021330  11404.217773      106.790532
   2.053055  10758.245117      103.721961
   2.084780  11461.300781      107.057465
   2.116505  11020.810547      104.980048
   2.148230  12111.344727      110.051555
   2.179955  12179.180664      110.359325
   2.211680  12583.540039      112.176379
   2.243405  11730.411133      108.307023
   2.275130  11937.421875      109.258509
   2.306855  11938.425781      109.263103
   2.338580  13893.271484      117.869723
   2.370304  14887.533203      122.014479
   2.402029  14391.992188      119.966629
   2.433754  14635.375000      120.976754
   2.465479  16141.474609      127.049103
   2.497204  15683.472656      125.233672
   2.528929  16135.567383      127.025853
   2.560654  15114.393555      122.940610
   2.592379  16307.921875      127.702474
   2.624104  15917.782227      126.165694
   2.655829  16460.484375      128.298419
   2.687554  16793.105469      129.588215
   2.719278  17337.613281      131.672371
   2.751003  16465.613281      128.318406
   2.782728  16569.996094      128.724497
   2.814453  15818.111328      125.770073
   2.846178  15268.437500      123.565519
   2.877903  15233.921875      123.425775
   2.909628  15156.379883      123.111250
   2.941353  15405.054688      124.117101
   2.973078  14687.458984      121.191827
   3.004803  12980.824219      113.933420
   3.036528  14250.986328      119.377495
   3.068252  13924.258789      118.001097
   3.099977  13403.351562      115.772845
   3.131702  12327.007812      111.027059
   3.163427  13416.694336      115.830455
   3.195152  12408.889648      111.395196
   3.226877  12932.115234      113.719458
   3.258602  12494.136719      111.777174
   3.290327  13098.219727      114.447454
   3.322052  12927.750977      113.700268
   3.353777  14524.850586      120.519088
   3.385502  12907.505859      113.611205
   3.417226  13460.753906      116.020489
   3.448951  13050.286133      114.237849
   3.480676  13621.265625      116.710178
   3.512401  13482.483398      116.114096
   3.544126  13911.876953      117.948620
   3.575851  12702.078125      112.703497
   3.607576  12663.621094      112.532756
   3.639301  11853.239258      108.872583
   3.671026  12679.169922      112.601820
   3.702751  12767.708008      112.994283
   3.734476  11761.220703      108.449162
   3.766201  11146.181641      105.575478
   3.797925  11905.865234      109.114001
   3.829650  10604.021484      102.975830
   3.861375  10822.421875      104.030870
   3.893100  10113.305664      100.564933
   3.924825  10324.916016      101.611594
   3.956550   8988.426758       94.807314
   3.988275   9033.921875       95.046946
   4.020000   8435.884766       91.847073
   4.051725   7835.157227       88.516423
   4.083450   7199.932129       84.852414
   4.115175   8326.996094       91.252376
   4.146899   6678.622070       81.722837
   4.178624   6937.418945       83.291170
   4.210349   6836.700195       82.684341
   4.242074   7564.064453       86.971630
   4.273799   5989.425781       77.391381
   4.305524   6531.436523       80.817303
   4.337249   6218.696289       78.858711
   4.368974   6374.253906       79.838925
   4.400699   5121.053711       71.561538
   4.432424   5545.877441       74.470648
   4.464149   6086.123535       78.013611
   4.495873   6368.781250       79.804644
   4.527598   5250.867188       72.462868
   4.559323   5552.746582       74.516754
   4.591048   5021.253906       70.860807
   4.622773   5741.584473       75.773244
   4.654498   4985.471191       70.607869
   4.686223   4765.645020       69.033651
   4.717948   4931.980469       70.228060
   4.749673   5456.455566       73.867825
   4.781398   4758.079590       68.978834
   4.813123   4567.663574       67.584492
   4.844847   4152.080078       64.436636
   4.876572   4990.028320       70.640133
   4.908297   3506.674805       59.217183
   4.940022   4071.088867       63.805085
   4.971747   3470.864502       58.914043
   5.003472   4279.933105       65.421198
   5.035197   3657.419922       60.476606
   5.066922   4115.030762       64.148506
   5.098647   3310.229980       57.534598
   5.130372   3959.692383       62.926087
   5.162097   3146.668457       56.095173
   5.193822   3382.172119       58.156445
   5.225546   3223.061523       56.772014
   5.257271   3634.366211       60.285705
   5.288996   2540.287842       50.401268
   5.320721   3148.541504       56.111866
   5.352446   3050.351562       55.229988
   5.384171   2912.496582       53.967551
   5.415896   2185.189209       46.746007
   5.447621   2437.677246       49.372839
   5.479346   2025.554443       45.006160
   5.511071   2430.215820       49.297219
   5.542796   2034.909302       45.109969
   5.574520   2315.317139       48.117742
   5.606245   2339.165039       48.364915
   5.637970   3053.821289       55.261391
   5.669695   2102.921875       45.857626
   5.701420   2215.475098       47.068834
   5.733145   2178.814453       46.677773
   5.764870   2514.672363       50.146509
   5.796595   1901.663574       43.608068
   5.828320   2323.467285       48.202358
   5.860045   1926.280151       43.889408
   5.891770   2520.249023       50.202082
   5.923494   1893.653198       43.516126
   5.955219   2264.397461       47.585685
   5.986944   1853.727295       43.054933
   6.018669   2402.977539       49.020175
   6.050394   1474.478760       38.398942
   6.082119   1872.528931       43.272727
   6.113844   1613.180420       40.164417
   6.145569   2376.636719       48.750761
   6.177294   1536.109131       39.193228
   6.209019   2084.302734       45.654164
   6.240744   2017.786255       44.919776
   6.272468   2716.441406       52.119492
   6.304193   2010.292725       44.836288
   6.335918   2187.966309       46.775702
   6.367643   1707.017822       41.316072
   6.399368   2078.566162       45.591295
   6.431093   1425.791138       37.759650
   6.462818   1761.970459       41.975832
   6.494543   1344.476318       36.667101
   6.526268   2167.260742       46.553848
   6.557993   1519.596924       38.982008
   6.589718   1628.690430       40.357037
   6.621443   1316.318604       36.281105
   6.653167   1923.353027       43.856049
   6.684892   1114.209961       33.379784
   6.716617   1697.262207       41.197842
   6.748342   1319.623657       36.326625
   6.780067   2140.172119       46.261994
   6.811792   1441.040771       37.961043
   6.843517   1783.984375       42.237239
   6.875242   1386.754761       37.239156
   6.906967   2110.020264       45.934957
   6.938692   1383.949951       37.201478
   6.970417   1966.006104       44.339667
   7.002141   1417.548584       37.650346
   7.033866   1890.146729       43.475818
   7.065591   1178.548584       34.329995
   7.097316   1768.479248       42.053291
   7.129041   1182.579346       34.388651
   7.160766   2089.265137       45.708480
   7.192491   1280.160156       35.779326
   7.224216   1471.261963       38.357033
   7.255941   1411.861328       37.574743
   7.287666   1997.214111       44.690202
   7.319391   1583.437500       39.792430
   7.351115   1800.200806       42.428773
   7.382840   1471.127930       38.355286
   7.414565   1992.133789       44.633326
   7.446290   1406.245361       37.499938
   7.478015   1852.725098       43.043293
   7.509740   1457.197754       38.173260
   7.541465   1777.239258       42.157316
   7.573190   1340.202393       36.608775
   7.604915   1846.273926       42.968290
   7.636640   1349.064209       36.729609
   7.668365   1944.462524       44.096060
   7.700089    914.083496       30.233814
   7.731814   1641.540405       40.515928
   7.763539   1541.333496       39.259820
   7.795264   2258.580566       47.524526
   7.826989   1235.686890       35.152338
   7.858714   1871.662598       43.262716
   7.890439   1822.647949       42.692481
   7.922164   2134.806396       46.203965
   7.953889   1031.694580       32.120003
   7.985614   1677.134277       40.952830
   8.017339   1202.663940       34.679446
   8.049064   1820.309570       42.665086
   8.080788   1065.072510       32.635449
   8.112513   1542.683105       39.277005
   8.144238   1401.307617       37.434044
   8.175963   2087.137207       45.685197
   8.207688   1684.888184       41.047389
   8.239413   1486.775635       38.558730
   8.271138   1344.638550       36.669313
   8.302863   1731.226318       41.608008
   8.334588    897.056824       29.950907
   8.366313   1692.071777       41.134800
   8.398038   1848.064697       42.989123
   8.429762   1894.820801       43.529539
   8.461487   1071.410156       32.732402
   8.493212   1523.450439       39.031403
   8.524937   1571.649780       39.644038
   8.556662   1886.065063       43.428851
   8.588387   1040.735474       32.260432
   8.620112   1290.585693       35.924723
   8.651837   1308.978027       36.179801
   8.683562   1712.716797       41.384983
   8.715287   1130.278931       33.619621
   8.747012   1238.577759       35.193433
   8.778736   1467.009277       38.301557
   8.810461   2107.151367       45.903718
   8.842186   1001.699829       31.649642
   8.873911   1603.388184       40.042330
   8.905636   1469.501221       38.334074
   8.937361   1572.827881       39.658894
   8.969086    784.073608       28.001314
   9.000811   1734.848755       41.651516
   9.032536   1355.557373       36.817895
   9.064261   1971.378418       44.400207
   9.095986   1207.597168       34.750499
   9.127710   1560.219482       39.499614
   9.159435   1098.748047       33.147369
   9.191160   1537.585327       39.212056
   9.222885   1127.104736       33.572381
   9.254610   1505.171509       38.796540
   9.286335    982.614868       31.346688
   9.318060   1762.014648       41.976358
   9.349785   1289.417480       35.908460
   9.381510   1828.944458       42.766160
   9.413235   1001.129150       31.640625
   9.444960   1620.851562       40.259801
   9.476685    996.015259       31.559709
   9.508409   1237.680908       35.180689
   9.540134    987.333191       31.421858
   9.571859   1928.028809       43.909325
   9.603584    817.995361       28.600618
   9.635309   1592.303711       39.903680
   9.667034    876.922852       29.612883
   9.698759   2022.784424       44.975376
   9.730484   1104.508057       33.234140
   9.762209   1495.071289       38.666152
   9.793934   1378.026855       37.121784
   9.825659   1510.997803       38.871555
   9.857383   1062.638916       32.598143
   9.889108   1357.682007       36.846737
   9.920833   1322.044189       36.359926
   9.952558   1770.520752       42.077556
   9.984283   1166.526123       34.154445
  10.016008   1369.789429       37.010666
  10.047733   1008.013184       31.749223
  10.079458   1736.931885       41.676515
  10.111183    820.068726       28.636842
  10.142908   1384.387939       37.207364
  10.174633   1282.186157       35.807627
  10.206357   1749.415039       41.826009
  10.238082   1135.278320       33.693891
  10.269807   1531.096191       39.129224
  10.301532   1211.258057       34.803133
  10.333257   1751.194336       41.847274
  10.364982    852.275024       29.193750
  10.396707   1523.411865       39.030909
  10.428432   1088.745728       32.996147
  10.460157   1606.567871       40.082014
  10.491882    864.857056       29.408452
  10.523607   1325.358398       36.405472
  10.555332    937.675293       30.621484
  10.587056   1679.330688       40.979637
  10.618781   1166.853027       34.159230
  10.650506   1355.120483       36.811961
  10.682231   1109.804443       33.313728
  10.713956   1789.530518       42.302843
  10.745681   1134.274048       33.678985
  10.777406   1725.140869       41.534815
  10.809131   1261.796143       35.521770
  10.840856   1645.199341       40.561057
  10.872581    973.113159       31.194762
  10.904306   1189.204224       34.484840
  10.936030    977.468628       31.264495
  10.967755   1602.048828       40.025602
  10.999480    763.621277       27.633698
  11.031205   1413.883545       37.601643
  11.062930    819.541748       28.627640
  11.094655   1797.647949       42.398679
  11.126380   1015.762756       31.871033
  11.158105   1159.830322       34.056282
  11.189830   1129.831909       33.612972
  11.221555   1693.241943       41.149021
  11.253280    863.715454       29.389036
  11.285004   1596.333252       39.954139
  11.316729    752.882690       27.438708
  11.348454   1814.499023       42.596937
  11.380179    617.419800       24.847934
  11.411904    998.193848       31.594206
  11.443629    937.995483       30.626712
  11.475354   1503.510498       38.775127
  11.507079    666.460754       25.815901
  11.538804   1336.915527       36.563855
  11.570529    998.202637       31.594345
  11.602254   1434.110596       37.869653
  11.633978    965.321045       31.069616
  11.665703   1412.588867       37.584423
  11.697428   1029.424561       32.084647
  11.729153   1553.524414       39.414774
  11.760878   1116.028442       33.407012
  11.792603   1341.977539       36.633012
  11.824328   1159.957886       34.058154
  11.856053   1714.989990       41.412438
  11.887778    803.469971       28.345546
  11.919503   1645.135986       40.560276
  11.951228   1090.682861       33.025488
  11.982953   1546.858887       39.330127
  12.014677    940.625183       30.669613
  12.046402   1298.681030       36.037217
  12.078127    950.623047       30.832176
  12.109852   1672.600342       40.897437
  12.141577    940.710571       30.671005
  12.173302   1194.031494       34.554761
  12.205027    921.276062       30.352530
  12.236752   1572.770874       39.658175
  12.268477    685.605103       26.184062
  12.300202   1280.140869       35.779056
  12.331927    957.759888       30.947696
  12.363651   1567.514526       39.591849
  12.395376   1141.557617       33.786944
  12.427101   1381.702026       37.171253
  12.458826   1050.889771       32.417430
  12.490551   1702.162231       41.257269
  12.522276    730.023010       27.018938
  12.554001   1271.983398       35.664876
  12.585726   1096.211914       33.109091
  12.617451   1459.386841       38.201922
  12.649176    716.652222       26.770361
  12.680901   1133.079712       33.661249
  12.712625   1117.454224       33.428345
  12.744350   1562.757324       39.531726
  12.776075   1098.112183       33.137776
  12.807800   1495.636475       38.673460
  12.839525   1110.109375       33.318304
  12.871250   1566.617432       39.580518
  12.902975   1112.160156       33.349065
  12.934700   1490.894287       38.612100
  12.966425   1042.937744       32.294547
  12.998150   1582.295288       39.778075
  13.029875    877.110840       29.616057
  13.061599   1370.218262       37.016459
  13.093324    858.760071       29.304608
  13.125049   1285.323975       35.851415
  13.156774    961.397095       31.006404
  13.188499   1016.077393       31.875969
  13.220224    788.909912       28.087540
  13.251949   1810.906494       42.554747
  13.283674    731.534241       27.046890
  13.315399   1243.592407       35.264606
  13.347124   1044.670898       32.321369
  13.378849   1539.048584       39.230710
  13.410574    809.931763       28.459300
  13.442298   1510.368408       38.863459
  13.474023   1040.602783       32.258375
  13.505748   1672.791748       40.899777
  13.537473    971.828369       31.174162
  13.569198   1367.665771       36.981965
  13.600923   1226.324585       35.018918
  13.632648   1910.638428       43.710850
  13.664373   1013.101562       31.829256
  13.696098   1157.375854       34.020227
  13.727823   1044.586548       32.320064
  13.759548   1645.817871       40.568681
  13.791272   1048.419434       32.379306
  13.822997   1578.032837       39.724461
  13.854722   1437.289062       37.911595
  13.886447   1372.093628       37.041782
  13.918172    781.792908       27.960560
  13.949897   1373.433228       37.059860
  13.981622   1113.223022       33.364997
  14.013347   1357.291382       36.841436
  14.045072    759.423828       27.557646
  14.076797   1001.614685       31.648297
  14.108522    729.031128       27.000576
  14.140246   1618.566162       40.231408
  14.171971    801.825806       28.316529
  14.203696   1357.286133       36.841364
  14.235421    971.574036       31.170082
  14.267146   1601.880371       40.023498
  14.298871    857.933716       29.290506
  14.330596   1132.378662       33.650834
  14.362321    754.463318       27.467496
  14.394046   1502.870605       38.766875
  14.425771    845.589111       29.079015
  14.457496   1496.148438       38.680078
  14.489220    903.509827       30.058440
  14.520945   1611.916260       40.148677
  14.552670    722.547058       26.880235
  14.584395    732.431152       27.063465
  14.616120    937.316284       30.615622
  14.647845   1633.598877       40.417804
  14.679570    791.858276       28.139976
  14.711295   1121.303467       33.485870
  14.743020   1152.198486       33.944049
  14.774745   1441.853149       37.971741
  14.806470    713.791504       26.716877
  14.838195   1491.148682       38.615394
  14.869919   1238.179321       35.187772
  14.901644   1479.365723       38.462524
  14.933369    599.091919       24.476354
  14.965094   1328.048218       36.442396
  14.996819   1183.347168       34.399813
  15.028544   1484.165283       38.524866
  15.060269    669.478394       25.874281
  15.091994   1121.838379       33.493856
  15.123719    875.418457       29.587471
  15.155444   1354.997559       36.810291
  15.187169    974.401978       31.215412
  15.218893   1707.932495       41.327140
  15.250618    803.462158       28.345408
  15.282343   1428.672241       37.797781
  15.314068    748.328003       27.355584
  15.345793   1360.839600       36.889559
  15.377518   1001.117188       31.640436
  15.409243   1480.869263       38.482064
  15.440968    772.456421       27.793100
  15.472693   1227.677002       35.038222
  15.504418   1027.175781       32.049583
  15.536143   1671.031738       40.878255
  15.567867    942.302551       30.696947
  15.599592   1115.454346       33.398418
  15.631317    874.796387       29.576957
  15.663042   1665.681396       40.812760
  15.694767    832.506042       28.853181
  15.726492   1139.464111       33.755949
  15.758217   1117.276611       33.425688
  15.789942   1855.325684       43.073492
  15.821667   1157.826172       34.026845
  15.853392   1334.837158       36.535423
  15.885117   1185.566895       34.432062
  15.916841   1586.121216       39.826137
  15.948566    545.994751       23.366531
  15.980291   1247.447266       35.319219
  16.012016   1207.162598       34.744246
  16.043741   1604.114624       40.051400
  16.075466    868.522827       29.470711
  16.107191   1241.956299       35.241400
  16.138916    814.679321       28.542588
  16.170641   1700.410645       41.236036
  16.202366    549.570984       23.442930
  16.234091   1293.414185       35.964068
  16.265816   1015.860840       31.872572
  16.297540   1653.699219       40.665701
  16.329265    586.737000       24.222655
  16.360990   1103.741699       33.222608
  16.392715   1060.611572       32.567032
  16.424440   1369.399658       37.005400
  16.456165    869.029053       29.479299
  16.487890   1384.895020       37.214178
  16.519615    803.157654       28.340036
  16.551340   1522.303955       39.016714
  16.583065   1178.237061       34.325458
  16.614790   1020.444519       31.944397
  16.646514    828.756592       28.788133
  16.678239   1437.298340       37.911718
  16.709964    807.011353       28.407945
  16.741689    996.669067       31.570066
  16.773414   1010.874512       31.794253
  16.805139   1518.631958       38.969629
  16.836864    692.057922       26.306994
  16.868589   1247.571045       35.320972
  16.900314    653.496460       25.563577
  16.932039   1634.172852       40.424904
  16.963764    651.906738       25.532464
  16.995488   1323.484131       36.379721
  17.027213    986.646545       31.410930
  17.058938   1573.012695       39.661224
  17.090663    816.303894       28.571032
  17.122388   1161.691162       34.083591
  17.154113    927.795471       30.459735
  17.185838   1524.572388       39.045773
  17.217563    663.596313       25.760363
  17.249288   1151.307129       33.930917
  17.281013    699.893188       26.455494
  17.312738   1369.111816       37.001511
  17.344462    576.851990       24.017743
  17.376187   1302.292236       36.087286
  17.407912   1121.446533       33.488006
  17.439637   1641.276855       40.512675
  17.471362    644.228882       25.381664
  17.503087   1237.759277       35.181803
  17.534812    916.507141       30.273869
  17.566537   1398.229980       37.392914
  17.598262    766.965576       27.694143
  17.629987   1266.434082       35.586993
  17.661712    572.750854       23.932214
  17.693437   1424.722412       37.745495
  17.725161    811.586426       28.488356
  17.756886   1138.031860       33.734728
  17.788611    960.170593       30.986620
  17.820336   1690.087524       41.110674
  17.852061    699.044373       26.439447
  17.883786   1162.980957       34.102507
  17.915511    841.518799       29.008943
  17.947236   1525.358276       39.055835
  17.978961   1040.660645       32.259272
  18.010686   1110.740723       33.327777
  18.042411    814.789185       28.544512
  18.074135   1619.544922       40.243570
  18.105860    747.964478       27.348939
  18.137585   1323.561279       36.380782
  18.169310   1045.319580       32.331402
  18.201035   1342.112671       36.634856
  18.232760    895.030762       29.917065
  18.264485   1420.883301       37.694606
  18.296210    655.849548       25.609560
  18.327935   1520.737061       38.996629
  18.359660    831.072998       28.828337
  18.391385   1348.240845       36.718399
  18.423109   1113.779053       33.373328
  18.454834   1556.761353       39.455815
  18.486559    912.050110       30.200167
  18.518284   1377.160767       37.110117
  18.550009    812.062622       28.496712
  18.581734   1434.909180       37.880195
  18.613459    518.869629       22.778710
  18.645184    906.765015       30.112539
  18.676909    888.042664       29.800045
  18.708634   1587.153076       39.839090
  18.740359    737.502808       27.157003
  18.772083   1178.166382       34.324428
  18.803808    940.303223       30.664364
  18.835533   1489.004150       38.587617
  18.867258    800.353394       28.290518
  18.898983   1214.140625       34.844521
  18.930708    952.155762       30.857021
  18.962433   1354.705078       36.806318
  18.994158    566.414978       23.799474
  19.025883   1299.379395       36.046905
  19.057608    803.799805       28.351363
  19.089333   1399.301636       37.407240
  19.121058   1012.800659       31.824529
  19.152782   1231.199707       35.088455
  19.184507    773.952454       27.820001
  19.216232   1469.743530       38.337234
  19.247957   1099.317871       33.155963
  19.279682   1070.517578       32.718765
  19.311407    492.064209       22.182520
  19.343132   1469.264160       38.330982
  19.374857    955.959595       30.918596
  19.406582   1321.015137       36.345772
  19.438307   1040.274170       32.253282
  19.470032   1656.076416       40.694919
  19.501756    894.828918       29.913691
  19.533481   1214.878906       34.855113
  19.565206    731.032471       27.037612
  19.596931   1355.302124       36.814428
  19.628656    782.518555       27.973533
  19.660381   1203.204834       34.687243
  19.692106    904.432556       30.073785
  19.723831   1472.083374       38.367739
  19.755556    701.484436       26.485551
  19.787281   1150.623291       33.920839
  19.819006    625.923096       25.018455
  19.850730   1303.384277       36.102414
  19.882455    837.001648       28.930981
  19.914180   1188.255249       34.471078
  19.945905    876.681030       29.608800
  19.977630   1627.728760       40.345121
  20.009355    485.483063       22.033680
  20.041080   1249.600952       35.349695
  20.072805    717.991333       26.795360
  20.104530   1369.717529       37.009695
  20.136255    514.315796       22.678532
  20.167980   1276.187988       35.723773
  20.199704   1019.230225       31.925385
  20.231429   1531.233887       39.130984
  20.263154    967.019775       31.096942
  20.294879   1408.949707       37.535979
  20.326604    738.331421       27.172255
  20.358329   1649.587646       40.615116
  20.390054    608.288940       24.663514
  20.421779   1193.557129       34.547896
  20.453504    920.365906       30.337533
  20.485229   1401.497437       37.436579
  20.516954    798.011719       28.249101
  20.548679    989.740723       31.460145
  20.580403    896.587524       29.943071
  20.612128   1499.683716       38.725750
  20.643853    803.004517       28.337334
  20.675578   1232.344482       35.104764
  20.707303   1208.724854       34.766720
  20.739028   1499.154541       38.718917
  20.770753    750.810242       27.400917
  20.802478   1207.713867       34.752178
  20.834203    995.325073       31.548773
  20.865928   1381.179932       37.164229
  20.897653    720.409607       26.840447
  20.929377   1234.964478       35.142061
  20.961102    840.797424       28.996507
  20.992827   1606.825439       40.085227
  21.024552    723.272339       26.893723
  21.056277   1291.978516       35.944103
  21.088002   1013.153809       31.830077
  21.119727   1598.246582       39.978076
  21.151452    970.811890       31.157854
  21.183177    874.166260       29.566303
  21.214902    800.064453       28.285411
  21.246627   1205.764404       34.724118
  21.278351    808.218262       28.429180
  21.310076   1280.660156       35.786312
  21.341801    968.184143       31.115658
  21.373526   1330.929688       36.481909
  21.405251    871.580566       29.522543
  21.436976   1175.063965       34.279206
  21.468701   1006.377930       31.723460
  21.500426   1593.805298       39.922491
  21.532151    687.431091       26.218907
  21.563876   1505.767822       38.804224
  21.595601   1098.378540       33.141794
  21.627325   1709.279297       41.343431
  21.659050    949.369385       30.811838
  21.690775   1389.498779       37.275981
  21.722500    877.226868       29.618016
  21.754225   1072.602539       32.750611
  21.785950    797.595337       28.241730
  21.817675   1249.083740       35.342379
  21.849400    832.389893       28.851168
  21.881125   1867.012207       43.208937
  21.912850    681.092163       26.097742
  21.944575   1434.420532       37.873745
  21.976300    823.211670       28.691666
  22.008024   1575.820068       39.696600
  22.039749    642.772949       25.352967
  22.071474   1274.781738       35.704086
  22.103199    795.706543       28.208271
  22.134924   1477.786377       38.441987
  22.166649    710.417603       26.653660
  22.198374   1183.115479       34.396446
  22.230099    833.032593       28.862304
  22.261824   1537.257690       39.207878
  22.293549    712.513794       26.692954
  22.325274   1152.014160       33.941334
  22.356998    879.346436       29.653776
  22.388723   1819.810913       42.659242
  22.420448    816.868835       28.580917
  22.452173   1286.286377       35.864835
  22.483898   1011.557251       31.804988
  22.515623   1452.931885       38.117344
  22.547348    790.293945       28.112167
  22.579073   1405.694336       37.492590
  22.610798   1158.786987       34.040960
  22.642523   1245.858154       35.296716
  22.674248    635.985413       25.218751
  22.705972   1122.042480       33.496903
  22.737697    957.149536       30.937833
  22.769422   1589.413696       39.867452
  22.801147   1049.625610       32.397926
  22.832872   1242.712891       35.252133
  22.864597   1012.167480       31.814580
  22.896322   1565.382080       39.564910
  22.928047    955.363525       30.908955
  22.959772   1269.559814       35.630883
  22.991497    770.993408       27.766768
  23.023222   1219.135010       34.916114
  23.054946    826.670288       28.751875
  23.086671   1262.584595       35.532866
  23.118396   1052.617432       32.444066
  23.150121   1431.981934       37.841537
  23.181846    883.146301       29.717778
  23.213571   1074.627197       32.781507
  23.245296    743.585205       27.268759
  23.277021   1439.416504       37.939643
  23.308746    833.254150       28.866142
  23.340471   1191.611328       34.519724
  23.372196    869.173157       29.481743
  23.403921   1568.190552       39.600386
  23.435645    856.491089       29.265869
  23.467370   1434.131592       37.869930
  23.499095    936.927979       30.609279
  23.530820   1481.241943       38.486906
  23.562545    564.540527       23.760062
  23.594270   1018.273682       31.910401
  23.625995    845.964355       29.085466
  23.657720   1168.233398       34.179429
  23.689445    450.996033       21.236667
  23.721170   1232.821899       35.111564
  23.752895   1080.799561       32.875516
  23.784619   1183.623047       34.403823
  23.816344    803.615967       28.348121
  23.848069   1136.907959       33.718066
  23.879794    848.667114       29.131892
  23.911519   1541.867188       39.266617
  23.943244    617.864624       24.856883
  23.974969    815.585327       28.558455
  24.006694   1001.788025       31.651035
  24.038419   1434.243652       37.871409
  24.070144    374.463654       19.351063
  24.101869   1120.881104       33.479562
  24.133593   1052.701538       32.445362
  24.165318   1684.668457       41.044713
  24.197043    791.096008       28.126429
  24.228768   1145.754883       33.849001
  24.260493    867.061890       29.445915
  24.292218   1552.632080       39.403453
  24.323943    717.128906       26.779263
  24.355668   1267.267090       35.598695
  24.387393    817.500000       28.591957
  24.419118   1289.239990       35.905988
  24.450843    292.756897       17.110140
  24.482567   1212.793945       34.825191
  24.514292    755.976868       27.495034
  24.546017   1283.082275       35.820138
  24.577742    868.039307       29.462507
  24.609467   1348.269287       36.718787
  24.641192    719.211792       26.818124
  24.672917   1361.267334       36.895357
  24.704642    864.797485       29.407439
  24.736367   1301.852905       36.081199
  24.768092   1105.479004       33.248744
  24.799817   1338.454590       36.584896
  24.831542    665.387695       25.795110
  24.863266   1350.428467       36.748176
  24.894991    886.337158       29.771415
  24.926716   1390.818237       37.293676
  24.958441    683.638550       26.146483
  24.990166   1304.515625       36.118079
  25.021891    622.401672       24.947979
  25.053616   1414.054688       37.603919
  25.085341    563.333740       23.734653
  25.117066   1241.937256       35.241130
  25.148791    656.103394       25.614515
  25.180516   1371.252930       37.030432
  25.212240    790.157471       28.109740
  25.243965   1257.744141       35.464689
  25.275690   1028.434814       32.069219
  25.307415   1411.105225       37.564681
  25.339140    616.552124       24.830468
  25.370865   1054.855713       32.478542
  25.402590    601.860962       24.532855
  25.434315   1465.303345       38.279281
  25.466040    450.530457       21.225703
  25.497765   1260.833618       35.508219
  25.529490    730.378784       27.025521
  25.561214   1335.661255       36.546700
  25.592939    577.117676       24.023274
  25.624664   1229.456787       35.063611
  25.656389    922.695068       30.375896
  25.688114   1454.054321       38.132064
  25.719839    860.550964       29.335149
  25.751564   1403.239258       37.459835
  25.783289    987.639832       31.426738
  25.815014   1576.677612       39.707400
  25.846739    653.603027       25.565661
  25.878464    962.949829       31.031433
  25.910188    821.347900       28.659168
  25.941913   1729.799194       41.590855
  25.973638   1004.352661       31.691523
  26.005363   1470.046021       38.341179
  26.037088    966.571167       31.089728
  26.068813   1300.855103       36.067369
  26.100538    580.440430       24.092331
  26.132263   1279.029785       35.763526
  26.163988    924.750977       30.409718
  26.195713   1600.455566       40.005694
  26.227438    648.636902       25.468351
  26.259163   1254.822388       35.423472
  26.290887    886.756470       29.778456
  26.322612   1316.944214       36.289726
  26.354337    702.022766       26.495712
  26.386062   1165.575073       34.140520
  26.417787    936.402466       30.600694
  26.449512   1437.643188       37.916265
  26.481237    904.111572       30.068448
  26.512962   1266.080078       35.582019
  26.544687    971.211121       31.164260
  26.576412   1722.114014       41.498362
  26.608137    935.028564       30.578237
  26.639861   1449.026123       38.066076
  26.671586   1303.312744       36.101423
  26.703311   1478.746216       38.454469
  26.735036    976.086914       31.242390
  26.766761   1369.423462       37.005722
  26.798486   1056.980469       32.511236
  26.830211   1459.361450       38.201590
  26.861936   1342.657471       36.642291