 Incident Energy (eV)  Int (a.u.)
              849.405    0.022575
              849.404    0.020665
              849.404    0.020606
              849.484    0.017067
              849.484    0.011527
              849.484    0.005289
              849.499   -0.000085
              849.499   -0.004059
              849.602   -0.003230
              849.602   -0.004275
              849.703   -0.001349
              849.703   -0.001001
              849.703   -0.001088
              849.703   -0.005613
              849.800   -0.006325
              849.800   -0.007834
              849.903   -0.008253
              849.903   -0.008137
              849.999    0.002933
              849.999    0.003775
              849.999    0.000787
              850.065    0.003400
              850.065   -0.000777
              850.101   -0.000150
              850.101   -0.010884
              850.200   -0.009197
              850.200   -0.004207
              850.290    0.002045
              850.290    0.003553
              850.302    0.003472
              850.302   -0.006159
              850.402    0.000194
              850.402    0.007998
              850.501   -0.002383
              850.501   -0.007199
              850.501   -0.004907
              850.501   -0.008011
              850.501   -0.005081
              850.601    0.008612
              850.601   -0.000701
              850.702   -0.005810
              850.702   -0.007116
              850.797   -0.011649
              850.797   -0.010430
              850.797   -0.004367
              850.801   -0.012971
              850.801   -0.017178
              850.901   -0.015814
              850.901   -0.016423
              851.002   -0.010974
              851.002   -0.002213
              851.096   -0.002041
              851.096   -0.006161
              851.096   -0.005378
              851.101   -0.007140
              851.101   -0.006299
              851.203    0.002077
              851.203   -0.003348
              851.300   -0.001594
              851.300    0.007341
              851.300    0.006877
              851.300    0.006499
              851.403    0.012260
              851.403    0.009010
              851.503    0.013420
              851.503    0.014116
              851.595    0.007682
              851.595    0.009365
              851.595    0.017052
              851.659    0.017615
              851.659    0.017383
              851.703    0.020499
              851.703    0.024125
              851.800    0.032551
              851.800    0.040094
              851.899    0.038300
              851.899    0.042274
              851.899    0.054168
              851.903    0.057371
              851.903    0.062389
              852.002    0.068950
              852.002    0.074752
              852.101    0.089377
              852.101    0.109597
              852.187    0.123003
              852.187    0.133156
              852.187    0.152477
              852.203    0.185043
              852.203    0.213270
              852.302    0.241617
              852.399    0.271191
              852.399    0.302986
              852.399    0.346094
              852.455    0.411007
              852.455    0.456668
              852.503    0.492315
              852.503    0.564782
              852.600    0.635637
              852.600    0.697428
              852.700    0.742248
              852.700    0.781411
              852.700    0.818254
              852.756    0.865180
              852.756    0.920298
              852.800    0.968669
              852.800    1.000000
              852.902    1.002225
              852.902    0.995263
              852.984    0.939556
              852.984    0.914027
              852.984    0.913157
              853.001    0.854976
              853.001    0.819004
              853.101    0.815958
              853.199    0.710168
              853.199    0.641705
              853.199    0.623719
              853.296    0.569832
              853.296    0.536471
              853.299    0.512206
              853.299    0.436519
              853.401    0.399175
              853.401    0.396535
              853.496    0.362065
              853.496    0.339408
              853.496    0.329951
              853.501    0.316323
              853.501    0.304603
              853.601    0.297612
              853.601    0.273186
              853.700    0.263588
              853.700    0.259353
              853.792    0.245985
              853.792    0.240096
              853.792    0.240096
              853.801    0.230194
              853.801    0.226133
              853.900    0.223961
              853.900    0.202233
              854.002    0.195726
              854.002    0.198598
              854.095    0.193755
              854.095    0.189839
              854.095    0.190622
              854.100    0.169742
              854.200    0.161823
              854.200    0.159589
              854.299    0.147352
              854.299    0.144364
              854.299    0.145524
              854.303    0.136368
              854.303    0.130624
              854.400    0.131885
              854.400    0.122602
              854.503    0.121545
              854.503    0.125316
              854.595    0.117895
              854.595    0.112268
              854.595    0.111049
              854.603    0.102079
              854.603    0.100194
              854.700    0.106183
              854.700         NaN
              854.800         NaN
              854.800    0.098554
              854.895    0.091555
              854.895    0.087900
              854.895    0.090482
              854.899    0.082197
              854.899    0.081877
              855.002    0.090510
              855.002    0.081168
              855.100    0.078479
              855.100    0.083585
              855.195    0.082011
              855.195    0.082447
              855.200    0.086486
              855.200    0.073606
              855.300    0.074592
              855.300    0.078770
              855.400    0.078857
              855.400    0.079553
              855.400    0.084369
              855.401    0.072819
              855.401    0.069163
              855.501    0.078099
              855.501    0.089615
              855.601    0.099885
              855.601    0.102989
              855.698    0.095344
              855.698    0.093052
              855.698    0.100856
              855.701    0.095650
              855.701    0.091966
              855.801    0.097246
              855.801    0.097071
              855.901    0.099566
              855.901    0.102961
              855.996    0.098834
              855.996    0.100430
              855.996    0.105680
              856.001    0.109256
              856.001    0.113172
              856.102    0.118680
              856.102    0.111457
              856.200    0.113699
              856.200    0.116542
              856.285    0.113620
              856.285    0.114606
              856.301    0.119004
              856.301    0.110185
              856.401    0.110939
              856.401    0.118772
              856.498    0.116348
              856.498    0.114927
              856.498    0.117393
              856.501    0.106472
              856.501    0.104122
              856.601    0.109402
              856.601    0.097943
              856.699    0.095283
              856.699    0.098793
              856.796    0.094136
              856.796    0.093875
              856.796    0.099532
              856.800    0.088346
              856.800    0.084023
              856.901    0.090662
              856.901    0.090285
              857.002    0.097969
              857.002    0.105598
              857.086    0.106712
              857.086    0.104885
              857.086    0.113501
              857.101    0.109142
              857.101    0.107285
              857.203    0.112672
              857.300    0.108479
              857.300    0.106304
              857.300    0.113266
              857.300    0.119039
              857.300    0.123042
              857.403    0.133937
              857.403    0.121057
              857.503    0.119461
              857.503    0.124335
              857.597    0.117370
              857.597    0.117080
              857.597    0.124883
              857.601    0.122023
              857.601    0.119557
              857.704    0.125462
              857.704    0.114178
              857.803    0.118505
              857.803    0.130747
              857.894    0.126231
              857.894    0.119472
              857.894    0.125216
              857.902    0.114999
              857.902    0.108704
              858.004    0.112786
              858.004    0.103415
              858.102    0.103337
              858.102    0.106296
              858.196    0.100230
              858.196    0.098200
              858.196    0.103886
              858.201    0.095654
              858.303    0.093731
              858.303    0.096458
              858.400    0.090959
              858.400    0.086579
              858.400    0.087884
              858.400    0.082285
              858.400    0.084635
              858.500    0.091627
              858.500    0.077818
              858.600    0.076832
              858.600    0.081415
              858.698    0.078929
              858.698    0.077276
              858.698    0.079945
              858.701    0.077640
              858.701    0.079468
              858.801    0.089070
              858.801    0.080831
              858.900    0.081416
              858.900    0.086435
              858.996    0.083348
              858.996    0.080505
              858.996    0.086655
              859.001    0.079381
              859.001    0.076451
              859.100    0.082519
              859.100    0.075034
              859.200    0.078864
              859.200    0.087973
              859.202    0.085092
              859.202    0.084744
              859.301    0.090608
              859.301    0.083675
              859.401    0.086547
              859.401    0.090347
              859.497    0.080009
              859.497    0.080473
              859.497    0.086507