 Eloss (eV)   Int (a.u.)  Int Err (a.u.)
 -37.956603 -5885.808785             NaN
 -37.924878 -4009.779608             NaN
 -37.893154 -3335.635589             NaN
 -37.861429 -2127.507821             NaN
 -37.829704  -748.275654             NaN
 -37.797979  -893.321323             NaN
 -37.766254  -566.327312             NaN
 -37.734529 -1595.948878             NaN
 -37.702804   203.344289       14.259884
 -37.671079  -929.591494             NaN
 -37.639354 -1053.078821             NaN
 -37.607629 -1073.257477             NaN
 -37.575904  -321.220214             NaN
 -37.544180  -705.773210             NaN
 -37.512455 -1010.823513             NaN
 -37.480730 -1154.993080             NaN
 -37.449005  -688.583161             NaN
 -37.417280 -1436.183108             NaN
 -37.385555  -851.375505             NaN
 -37.353830 -1036.930254             NaN
 -37.322105  -272.601958             NaN
 -37.290380  -872.957908             NaN
 -37.258655  -471.603157             NaN
 -37.226930  -920.553989             NaN
 -37.195205  -862.196336             NaN
 -37.163481 -1705.929546             NaN
 -37.131756 -1779.767696             NaN
 -37.100031 -2542.353093             NaN
 -37.068306  -478.394085             NaN
 -37.036581  -518.331596             NaN
 -37.004856 -1038.780420             NaN
 -36.973131  -980.456262             NaN
 -36.941406  -196.147996             NaN
 -36.909681  -579.416076             NaN
 -36.877956 -1012.225810             NaN
 -36.846231  -903.609592             NaN
 -36.814507    51.056673        7.145395
 -36.782782  -580.436360             NaN
 -36.751057 -1101.425131             NaN
 -36.719332 -1378.616378             NaN
 -36.687607  -192.957098             NaN
 -36.655882  -935.793406             NaN
 -36.624157  -745.522527             NaN
 -36.592432 -1392.014518             NaN
 -36.560707  -118.195848             NaN
 -36.528982 -1009.353024             NaN
 -36.497257 -1135.459750             NaN
 -36.465533 -1413.425487             NaN
 -36.433808  -224.789871             NaN
 -36.402083  -625.820178             NaN
 -36.370358 -1346.667923             NaN
 -36.338633 -1544.638531             NaN
 -36.306908  -192.362146             NaN
 -36.275183  -819.990348             NaN
 -36.243458 -1210.602294             NaN
 -36.211733 -1217.445043             NaN
 -36.180008  -343.095830             NaN
 -36.148283  -729.841900             NaN
 -36.116559  -713.216579             NaN
 -36.084834  -687.660596             NaN
 -36.053109    -2.844852             NaN
 -36.021384 -1075.211526             NaN
 -35.989659 -1204.178739             NaN
 -35.957934 -1247.193080             NaN
 -35.926209  -508.926254             NaN
 -35.894484  -830.248793             NaN
 -35.862759 -1240.302065             NaN
 -35.831034 -1259.955513             NaN
 -35.799309  -957.829944             NaN
 -35.767584  -889.967861             NaN
 -35.735860  -897.473192             NaN
 -35.704135 -1031.762445             NaN
 -35.672410   -51.121697             NaN
 -35.640685  -824.125281             NaN
 -35.608960 -1185.844892             NaN
 -35.577235  -780.961362             NaN
 -35.545510   521.517378       22.836755
 -35.513785  -720.194275             NaN
 -35.482060 -1023.035246             NaN
 -35.450335 -1838.532220             NaN
 -35.418610 -1248.007893             NaN
 -35.386886  -404.816758             NaN
 -35.355161  -761.495124             NaN
 -35.323436 -1482.620896             NaN
 -35.291711   -87.113857             NaN
 -35.259986  -868.219037             NaN
 -35.228261  -613.819263             NaN
 -35.196536  -615.800037             NaN
 -35.164811   -53.758853             NaN
 -35.133086   212.060457       14.562296
 -35.101361  -500.762288             NaN
 -35.069636  -860.768887             NaN
 -35.037912  -718.766688             NaN
 -35.006187 -1479.272007             NaN
 -34.974462 -1032.269645             NaN
 -34.942737 -1549.765599             NaN
 -34.911012 -1229.972370             NaN
 -34.879287 -1062.970403             NaN
 -34.847562 -1426.226683             NaN
 -34.815837 -2501.106299             NaN
 -34.784112 -1083.070137             NaN
 -34.752387 -1357.169736             NaN
 -34.720662 -1138.003332             NaN
 -34.688938 -1169.958825             NaN
 -34.657213  -473.698313             NaN
 -34.625488 -1267.649801             NaN
 -34.593763  -993.609498             NaN
 -34.562038 -1178.537098             NaN
 -34.530313  -204.691824             NaN
 -34.498588  -300.498642             NaN
 -34.466863  -777.907671             NaN
 -34.435138 -1285.194194             NaN
 -34.403413  -469.534246             NaN
 -34.371688  -864.186324             NaN
 -34.339963 -1264.585083             NaN
 -34.308239 -1845.121204             NaN
 -34.276514 -1034.002132             NaN
 -34.244789 -1206.836789             NaN
 -34.213064 -1131.560424             NaN
 -34.181339 -1273.883603             NaN
 -34.149614  -657.972329             NaN
 -34.117889  -496.425443             NaN
 -34.086164  -338.221975             NaN
 -34.054439  -969.309409             NaN
 -34.022714  -537.612460             NaN
 -33.990989 -1602.446927             NaN
 -33.959265 -1052.789961             NaN
 -33.927540 -1336.832514             NaN
 -33.895815  -556.887027             NaN
 -33.864090 -1284.110814             NaN
 -33.832365 -1155.094374             NaN
 -33.800640 -1821.930416             NaN
 -33.768915  -666.377462             NaN
 -33.737190 -1409.698183             NaN
 -33.705465  -489.596371             NaN
 -33.673740 -1500.414390             NaN
 -33.642015  -721.064046             NaN
 -33.610291 -1224.265996             NaN
 -33.578566  -900.797639             NaN
 -33.546841 -1796.379288             NaN
 -33.515116  -753.055499             NaN
 -33.483391  -963.917791             NaN
 -33.451666  -873.843895             NaN
 -33.419941 -1588.871577             NaN
 -33.388216  -789.084201             NaN
 -33.356491  -494.313759             NaN
 -33.324766  -947.169798             NaN
 -33.293041 -1462.128695             NaN
 -33.261317  -410.381271             NaN
 -33.229592 -1121.752405             NaN
 -33.197867  -691.173467             NaN
 -33.166142 -1083.892529             NaN
 -33.134417   341.693538       18.484954
 -33.102692  -312.433610             NaN
 -33.070967  -519.374772             NaN
 -33.039242 -1062.194693             NaN
 -33.007517  -135.990946             NaN
 -32.975792  -894.074360             NaN
 -32.944067 -1336.525311             NaN
 -32.912342 -1842.017490             NaN
 -32.880618   264.420512       16.261012
 -32.848893  -501.923200             NaN
 -32.817168  -968.031436             NaN
 -32.785443 -1681.891454             NaN
 -32.753718  -432.463974             NaN
 -32.721993  -915.945398             NaN
 -32.690268  -566.293224             NaN
 -32.658543 -1024.603665             NaN
 -32.626818   -49.349293             NaN
 -32.595093  -881.104504             NaN
 -32.563368  -760.130165             NaN
 -32.531644 -1215.537964             NaN
 -32.499919  -231.422018             NaN
 -32.468194  -748.435658             NaN
 -32.436469  -836.556600             NaN
 -32.404744 -1136.075004             NaN
 -32.373019  -312.237595             NaN
 -32.341294 -1282.540845             NaN
 -32.309569 -1492.185068             NaN
 -32.277844 -1393.373411             NaN
 -32.246119  -279.231519             NaN
 -32.214394  -417.960408             NaN
 -32.182670  -501.139383             NaN
 -32.150945 -1612.284256             NaN
 -32.119220  -649.938071             NaN
 -32.087495  -786.455675             NaN
 -32.055770 -1575.225422             NaN
 -32.024045 -1356.326440             NaN
 -31.992320  -385.187986             NaN
 -31.960595 -1086.391455             NaN
 -31.928870 -1195.546192             NaN
 -31.897145  -988.201380             NaN
 -31.865420  -439.382961             NaN
 -31.833696 -1156.443467             NaN
 -31.801971  -966.477280             NaN
 -31.770246 -1369.788075             NaN
 -31.738521 -1015.235023             NaN
 -31.706796  -504.679078             NaN
 -31.675071 -1091.824413             NaN
 -31.643346 -1085.787816             NaN
 -31.611621    33.457708        5.784264
 -31.579896  -580.579208             NaN
 -31.548171  -739.589398             NaN
 -31.516446 -1053.794863             NaN
 -31.484721   186.082471       13.641205
 -31.452997  -725.911579             NaN
 -31.421272  -663.728578             NaN
 -31.389547 -1150.393535             NaN
 -31.357822   -72.394228             NaN
 -31.326097  -393.920823             NaN
 -31.294372  -692.351960             NaN
 -31.262647 -1066.341896             NaN
 -31.230922   -12.725863             NaN
 -31.199197  -531.404302             NaN
 -31.167472  -423.406117             NaN
 -31.135747 -1007.704212             NaN
 -31.104023  -321.475125             NaN
 -31.072298  -600.050425             NaN
 -31.040573  -813.038427             NaN
 -31.008848 -1417.072611             NaN
 -30.977123  -852.859439             NaN
 -30.945398 -1408.981826             NaN
 -30.913673 -1394.951724             NaN
 -30.881948 -1617.678993             NaN
 -30.850223  -791.717887             NaN
 -30.818498  -783.535802             NaN
 -30.786773  -688.627137             NaN
 -30.755049  -862.649177             NaN
 -30.723324    -7.012910             NaN
 -30.691599  -134.515299             NaN
 -30.659874  -105.165058             NaN
 -30.628149  -715.776908             NaN
 -30.596424   242.457930       15.571061
 -30.564699  -449.583483             NaN
 -30.532974  -477.147934             NaN
 -30.501249  -992.929324             NaN
 -30.469524  -602.358919             NaN
 -30.437799  -898.880087             NaN
 -30.406075 -1048.281759             NaN
 -30.374350 -1684.085629             NaN
 -30.342625 -1362.589103             NaN
 -30.310900 -1357.672077             NaN
 -30.279175  -949.431551             NaN
 -30.247450 -1159.542823             NaN
 -30.215725   -85.447069             NaN
 -30.184000  -567.714238             NaN
 -30.152275  -428.955111             NaN
 -30.120550  -810.114971             NaN
 -30.088825  -100.140796             NaN
 -30.057100  -767.169395             NaN
 -30.025376  -555.609678             NaN
 -29.993651  -760.491773             NaN
 -29.961926  -129.708308             NaN
 -29.930201  -531.920970             NaN
 -29.898476  -266.979677             NaN
 -29.866751  -827.326206             NaN
 -29.835026   804.478491       28.363330
 -29.803301  -230.233547             NaN
 -29.771576  -248.215695             NaN
 -29.739851  -793.580208             NaN
 -29.708126   422.234549       20.548347
 -29.676402 -1067.313120             NaN
 -29.644677  -521.561972             NaN
 -29.612952  -841.578755             NaN
 -29.581227    25.232510        5.023197
 -29.549502  -463.999684             NaN
 -29.517777  -923.175433             NaN
 -29.486052 -1060.090991             NaN
 -29.454327   -28.309265             NaN
 -29.422602  -722.118102             NaN
 -29.390877  -792.161364             NaN
 -29.359152  -994.821134             NaN
 -29.327428  -481.546557             NaN
 -29.295703  -775.706651             NaN
 -29.263978 -1093.378236             NaN
 -29.232253  -936.562850             NaN
 -29.200528  -482.758269             NaN
 -29.168803  -879.950603             NaN
 -29.137078  -423.523399             NaN
 -29.105353 -1048.692910             NaN
 -29.073628  -227.585999             NaN
 -29.041903   272.878280       16.519028
 -29.010178   322.829919       17.967468
 -28.978454 -1116.648638             NaN
 -28.946729  -169.151194             NaN
 -28.915004  -580.654588             NaN
 -28.883279 -1009.995702             NaN
 -28.851554 -1603.104492             NaN
 -28.819829  -619.290380             NaN
 -28.788104  -520.717728             NaN
 -28.756379  -397.968195             NaN
 -28.724654  -909.578004             NaN
 -28.692929   108.896471       10.435347
 -28.661204   -73.692128             NaN
 -28.629479  -220.406486             NaN
 -28.597755  -658.271741             NaN
 -28.566030   528.736217       22.994265
 -28.534305  -158.790733             NaN
 -28.502580  -397.253429             NaN
 -28.470855  -624.897539             NaN
 -28.439130   -71.103378             NaN
 -28.407405  -298.595666             NaN
 -28.375680  -562.816902             NaN
 -28.343955 -1632.259341             NaN
 -28.312230   -87.197206             NaN
 -28.280505 -1061.076803             NaN
 -28.248781  -977.766626             NaN
 -28.217056  -655.747774             NaN
 -28.185331   276.088293       16.615905
 -28.153606  -173.973613             NaN
 -28.121881  -485.608910             NaN
 -28.090156  -873.644414             NaN
 -28.058431  -145.128584             NaN
 -28.026706  -593.111943             NaN
 -27.994981  -607.067556             NaN
 -27.963256 -1339.645844             NaN
 -27.931531  -248.719832             NaN
 -27.899807  -700.301827             NaN
 -27.868082  -669.706408             NaN
 -27.836357 -1111.628611             NaN
 -27.804632   -76.046787             NaN
 -27.772907  -459.466206             NaN
 -27.741182 -1075.169885             NaN
 -27.709457 -1586.970281             NaN
 -27.677732  -289.312832             NaN
 -27.646007  -777.146227             NaN
 -27.614282 -1163.283508             NaN
 -27.582557 -1130.250876             NaN
 -27.550833   158.248809       12.579698
 -27.519108  -188.175928             NaN
 -27.487383  -611.973422             NaN
 -27.455658 -1159.057665             NaN
 -27.423933  -631.435193             NaN
 -27.392208  -746.709834             NaN
 -27.360483  -739.730420             NaN
 -27.328758 -1052.790465             NaN
 -27.297033  -470.379027             NaN
 -27.265308  -637.801935             NaN
 -27.233583   371.539454       19.275359
 -27.201858  -275.045385             NaN
 -27.170134   477.781231       21.858207
 -27.138409  -671.749462             NaN
 -27.106684  -130.461861             NaN
 -27.074959 -1388.130596             NaN
 -27.043234  -395.806779             NaN
 -27.011509 -1042.872823             NaN
 -26.979784 -1070.213941             NaN
 -26.948059 -1348.728124             NaN
 -26.916334  -578.408319             NaN
 -26.884609 -1295.482608             NaN
 -26.852884  -614.711040             NaN
 -26.821160  -806.053777             NaN
 -26.789435   -12.893945             NaN
 -26.757710  -517.295034             NaN
 -26.725985  -645.128889             NaN
 -26.694260  -765.215361             NaN
 -26.662535   -22.085090             NaN
 -26.630810  -709.218452             NaN
 -26.599085  -112.366155             NaN
 -26.567360  -838.544609             NaN
 -26.535635   312.494950       17.677527
 -26.503910    80.046415        8.946866
 -26.472186  -243.338812             NaN
 -26.440461  -397.629253             NaN
 -26.408736   404.552613       20.113493
 -26.377011  -403.116623             NaN
 -26.345286  -568.413026             NaN
 -26.313561  -134.859554             NaN
 -26.281836   387.534705       19.685901
 -26.250111  -474.968675             NaN
 -26.218386  -174.744632             NaN
 -26.186661  -472.978457             NaN
 -26.154936   987.624811       31.426499
 -26.123211   411.243661       20.279143
 -26.091487   589.208073       24.273609
 -26.059762  -143.536148             NaN
 -26.028037   660.227437       25.694891
 -25.996312   437.041187       20.905530
 -25.964587    10.541198        3.246721
 -25.932862  -385.138624             NaN
 -25.901137   680.398377       26.084447
 -25.869412   548.835910       23.427247
 -25.837687   256.094090       16.002940
 -25.805962   308.261374       17.557374
 -25.774237  1001.314090       31.643547
 -25.742513   771.761683       27.780599
 -25.710788   388.486887       19.710071
 -25.679063    86.511026        9.301130
 -25.647338   636.220157       25.223405
 -25.615613    79.160785        8.897235
 -25.583888   476.442779       21.827569
 -25.552163   105.310002       10.262066
 -25.520438  1039.795292       32.245857
 -25.488713    29.184153        5.402236
 -25.456988  -132.088578             NaN
 -25.425263  -564.284414             NaN
 -25.393539   289.292847       17.008611
 -25.361814  -164.684644             NaN
 -25.330089  -291.470731             NaN
 -25.298364  -827.922675             NaN
 -25.266639   433.276741       20.815301
 -25.234914  -397.318643             NaN
 -25.203189   129.283276       11.370280
 -25.171464   -94.958238             NaN
 -25.139739   569.262869       23.859230
 -25.108014    -7.452497             NaN
 -25.076289   294.290612       17.154901
 -25.044565  -574.244388             NaN
 -25.012840   229.410911       15.146317
 -24.981115  -199.808749             NaN
 -24.949390  -237.650714             NaN
 -24.917665  -731.113076             NaN
 -24.885940   935.744408       30.589940
 -24.854215   471.034361       21.703326
 -24.822490  -159.954415             NaN
 -24.790765  -577.911182             NaN
 -24.759040   128.683954       11.343895
 -24.727315   -98.676973             NaN
 -24.695590   308.496731       17.564075
 -24.663866  -105.230629             NaN
 -24.632141   685.899740       26.189688
 -24.600416   149.709620       12.235588
 -24.568691   445.379368       21.104013
 -24.536966  -549.177334             NaN
 -24.505241   332.677127       18.239439
 -24.473516   355.950788       18.866658
 -24.441791  -483.981177             NaN
 -24.410066  -920.109260             NaN
 -24.378341   138.287356       11.759564
 -24.346616  -568.484945             NaN
 -24.314892  -408.979472             NaN
 -24.283167  -331.763460             NaN
 -24.251442   659.925772       25.689020
 -24.219717  -166.114787             NaN
 -24.187992   -35.568176             NaN
 -24.156267  -802.455934             NaN
 -24.124542   752.840328       27.437936
 -24.092817    32.130694        5.668394
 -24.061092  -216.036713             NaN
 -24.029367  -636.470363             NaN
 -23.997642   317.703784       17.824247
 -23.965918  -466.216968             NaN
 -23.934193  -748.901036             NaN
 -23.902468 -1073.607168             NaN
 -23.870743   -15.978476             NaN
 -23.839018  -116.210955             NaN
 -23.807293    -3.864494             NaN
 -23.775568   -70.409417             NaN
 -23.743843   969.703148       31.140057
 -23.712118   401.215105       20.030355
 -23.680393   419.314963       20.477182
 -23.648668    73.612471        8.579771
 -23.616944   238.359102       15.438883
 -23.585219  -934.329203             NaN
 -23.553494  -283.087957             NaN
 -23.521769  -407.124228             NaN
 -23.490044   150.753114       12.278156
 -23.458319   153.890639       12.405267
 -23.426594  -699.985319             NaN
 -23.394869 -1277.922145             NaN
 -23.363144  -304.142330             NaN
 -23.331419  -481.133813             NaN
 -23.299694   257.492721       16.046580
 -23.267969  -111.340514             NaN
 -23.236245  1021.540749       31.961551
 -23.204520   268.948321       16.399644
 -23.172795   147.238518       12.134188
 -23.141070  -420.470128             NaN
 -23.109345   997.514279       31.583449
 -23.077620   230.187165       15.171920
 -23.045895  -220.973681             NaN
 -23.014170  -239.736564             NaN
 -22.982445   377.132041       19.419888
 -22.950720   302.553494       17.394065
 -22.918995    35.532427        5.960908
 -22.887271  -478.523226             NaN
 -22.855546   359.067661       18.949081
 -22.823821   119.719708       10.941650
 -22.792096  -424.534143             NaN
 -22.760371   153.123418       12.374305
 -22.728646   703.694370       26.527238
 -22.696921   333.839026       18.271262
 -22.665196   619.190287       24.883534
 -22.633471  -279.247383             NaN
 -22.601746   308.168590       17.554731
 -22.570021  -335.186046             NaN
 -22.538297  -318.065221             NaN
 -22.506572 -1084.213154             NaN
 -22.474847   334.748312       18.296128
 -22.443122  -378.179441             NaN
 -22.411397  -106.259614             NaN
 -22.379672  -316.567340             NaN
 -22.347947   784.134614       28.002404
 -22.316222   846.171684       29.089030
 -22.284497   775.413222       27.846243
 -22.252772   419.461625       20.480762
 -22.221047  1567.702093       39.594218
 -22.189323   135.263071       11.630265
 -22.157598   139.875142       11.826882
 -22.125873  -721.888876             NaN
 -22.094148     6.720335        2.592361
 -22.062423  -334.093017             NaN
 -22.030698 -1009.616978             NaN
 -21.998973  -869.736892             NaN
 -21.967248   -59.048416             NaN
 -21.935523    69.046956        8.309450
 -21.903798   -42.289509             NaN
 -21.872073  -508.842580             NaN
 -21.840348   528.987244       22.999723
 -21.808624  -274.930092             NaN
 -21.776899  -352.192391             NaN
 -21.745174  -163.482523             NaN
 -21.713449   276.078886       16.615622
 -21.681724  -144.611422             NaN
 -21.649999  -357.176483             NaN
 -21.618274  -914.661843             NaN
 -21.586549   492.067945       22.182605
 -21.554824     4.513228        2.124436
 -21.523099  -201.809917             NaN
 -21.491374  -609.409528             NaN
 -21.459650   447.870320       21.162947
 -21.427925   630.133770       25.102465
 -21.396200   927.393467       30.453136
 -21.364475    93.521133        9.670633
 -21.332750   805.287655       28.377591
 -21.301025   733.438323       27.082066
 -21.269300    61.158585        7.820395
 -21.237575  -589.347846             NaN
 -21.205850  1421.754287       37.706157
 -21.174125   707.001422       26.589498
 -21.142400   402.235193       20.055802
 -21.110676   132.789614       11.523438
 -21.078951   123.944983       11.133058
 -21.047226   167.143834       12.928412
 -21.015501   201.011812       14.177863
 -20.983776  -261.936612             NaN
 -20.952051   637.021033       25.239276
 -20.920326  -136.072945             NaN
 -20.888601   190.034640       13.785305
 -20.856876  -707.574641             NaN
 -20.825151   547.729397       23.403619
 -20.793426   658.598705       25.663178
 -20.761702   742.170216       27.242801
 -20.729977   315.360366       17.758389
 -20.698252  1241.076091       35.228910
 -20.666527   615.859314       24.816513
 -20.634802   452.417907       21.270118
 -20.603077  -271.112912             NaN
 -20.571352   556.135437       23.582524
 -20.539627  -178.554522             NaN
 -20.507902  -221.537699             NaN
 -20.476177  -401.698934             NaN
 -20.444452   172.620947       13.138529
 -20.412727   398.332945       19.958280
 -20.381003   203.367204       14.260687
 -20.349278  -339.659091             NaN
 -20.317553   891.313283       29.854870
 -20.285828  -654.133020             NaN
 -20.254103  -782.904035             NaN
 -20.222378  -164.470151             NaN
 -20.190653   391.362501       19.782884
 -20.158928   266.606311       16.328083
 -20.127203    43.002373        6.557619
 -20.095478  -473.532960             NaN
 -20.063753   343.033975       18.521176
 -20.032029   -92.643417             NaN
 -20.000304   -71.644784             NaN
 -19.968579     9.611432        3.100231
 -19.936854   912.333278       30.204855
 -19.905129   586.511770       24.218005
 -19.873404   170.574460       13.060416
 -19.841679  -362.822195             NaN
 -19.809954   204.681273       14.306686
 -19.778229  -648.677294             NaN
 -19.746504  -138.939495             NaN
 -19.714779  -569.580219             NaN
 -19.683055   504.475489       22.460532
 -19.651330   192.327720       13.868227
 -19.619605  -200.997862             NaN
 -19.587880  -203.229136             NaN
 -19.556155   298.957906       17.290399
 -19.524430   246.634316       15.704595
 -19.492705    -9.400284             NaN
 -19.460980  -294.194349             NaN
 -19.429255   592.133211       24.333787
 -19.397530  -239.125580             NaN
 -19.365805    47.678528        6.904964
 -19.334081  -560.213837             NaN
 -19.302356   508.080021       22.540630
 -19.270631   196.189494       14.006766
 -19.238906    13.754298        3.708679
 -19.207181  -183.756242             NaN
 -19.175456   318.499820       17.846563
 -19.143731    53.158271        7.290972
 -19.112006  -388.597106             NaN
 -19.080281  -411.434571             NaN
 -19.048556   363.357787       19.061946
 -19.016831  -102.406765             NaN
 -18.985106  -211.756079             NaN
 -18.953382  -915.588470             NaN
 -18.921657   142.312427       11.929477
 -18.889932   240.358649       15.503504
 -18.858207   195.311825       13.975401
 -18.826482  -373.121877             NaN
 -18.794757   267.374562       16.351592
 -18.763032   126.305493       11.238572
 -18.731307   225.159050       15.005301
 -18.699582  -621.706962             NaN
 -18.667857   776.162635       27.859696
 -18.636132    57.252520        7.566539
 -18.604408    34.933495        5.910456
 -18.572683  -725.675515             NaN
 -18.540958   326.385553       18.066144
 -18.509233   -49.673646             NaN
 -18.477508  -305.059322             NaN
 -18.445783  -765.155165             NaN
 -18.414058   601.062485       24.516576
 -18.382333   228.812117       15.126537
 -18.350608  -162.017505             NaN
 -18.318883   587.728489       24.243112
 -18.287158   753.898537       27.457213
 -18.255434   619.341436       24.886571
 -18.223709   523.208010       22.873741
 -18.191984  -151.740850             NaN
 -18.160259   507.971579       22.538225
 -18.128534   391.507522       19.786549
 -18.096809  -377.037388             NaN
 -18.065084  -651.001208             NaN
 -18.033359  -167.112482             NaN
 -18.001634  -657.866237             NaN
 -17.969909  -543.695332             NaN
 -17.938184  -757.989668             NaN
 -17.906460   610.710815       24.712564
 -17.874735  -477.208622             NaN
 -17.843010  -313.010441             NaN
 -17.811285  -590.453916             NaN
 -17.779560  1123.378227       33.516835
 -17.747835   410.025675       20.249091
 -17.716110   519.925142       22.801867
 -17.684385   157.913743       12.566374
 -17.652660  1315.971898       36.276327
 -17.620935   577.102107       24.022950
 -17.589210   -34.729879             NaN
 -17.557485  -187.497694             NaN
 -17.525761   154.759738       12.440247
 -17.494036   -33.277507             NaN
 -17.462311   596.691550       24.427271
 -17.430586   302.580154       17.394831
 -17.398861   702.419342       26.503195
 -17.367136  -154.424684             NaN
 -17.335411   320.523799       17.903178
 -17.303686  -272.657665             NaN
 -17.271961   435.050870       20.857873
 -17.240236  -315.838405             NaN
 -17.208511   -99.717700             NaN
 -17.176787  -157.742637             NaN
 -17.145062   221.534147       14.884023
 -17.113337  -241.112800             NaN
 -17.081612  -429.646260             NaN
 -17.049887  -566.644621             NaN
 -17.018162   764.886878       27.656588
 -16.986437   222.316666       14.910287
 -16.954712    69.747531        8.351499
 -16.922987  -496.458662             NaN
 -16.891262   336.671104       18.348600
 -16.859537  -273.575824             NaN
 -16.827813  -712.987147             NaN
 -16.796088  -755.236893             NaN
 -16.764363   235.529126       15.346958
 -16.732638  -500.836024             NaN
 -16.700913  -245.176177             NaN
 -16.669188  -746.991483             NaN
 -16.637463   276.396881       16.625188
 -16.605738    13.925188        3.731647
 -16.574013  -151.065400             NaN
 -16.542288  -574.030320             NaN
 -16.510563   415.573447       20.385619
 -16.478839    18.838117        4.340290
 -16.447114  -396.685580             NaN
 -16.415389  -417.613813             NaN
 -16.383664   296.256817       17.212113
 -16.351939  -339.300271             NaN
 -16.320214  -228.868230             NaN
 -16.288489  -733.833907             NaN
 -16.256764   -12.367009             NaN
 -16.225039  -432.785843             NaN
 -16.193314  -250.282620             NaN
 -16.161589  -477.767736             NaN
 -16.129864   412.906942       20.320112
 -16.098140   429.830426       20.732352
 -16.066415  -125.122766             NaN
 -16.034690  -738.064929             NaN
 -16.002965   159.624461       12.634257
 -15.971240  -436.050309             NaN
 -15.939515  -887.325711             NaN
 -15.907790  -546.936256             NaN
 -15.876065   452.033622       21.261082
 -15.844340  -319.233601             NaN
 -15.812615   111.172229       10.543824
 -15.780890  -587.821561             NaN
 -15.749166  1120.967096       33.480847
 -15.717441   490.872831       22.155650
 -15.685716   291.687117       17.078850
 -15.653991   207.041137       14.388924
 -15.622266  1580.968465       39.761394
 -15.590541   783.703473       27.994704
 -15.558816   857.633010       29.285372
 -15.527091  -207.984374             NaN
 -15.495366   370.359569       19.244728
 -15.463641    62.312174        7.893806
 -15.431916    38.995473        6.244635
 -15.400192  -499.544597             NaN
 -15.368467   147.958139       12.163804
 -15.336742   -62.950585             NaN
 -15.305017   447.968919       21.165276
 -15.273292  -452.951679             NaN
 -15.241567   670.308333       25.890313
 -15.209842   596.038969       24.413909
 -15.178117   246.479569       15.699668
 -15.146392   -60.292310             NaN
 -15.114667  1013.200913       31.830817
 -15.082942   667.537312       25.836743
 -15.051218   -24.318726             NaN
 -15.019493  -474.257275             NaN
 -14.987768   822.566362       28.680418
 -14.956043   404.532345       20.112989
 -14.924318    -0.198022             NaN
 -14.892593  -500.613879             NaN
 -14.860868   835.492380       28.904885
 -14.829143   131.691671       11.475699
 -14.797418   315.342594       17.757888
 -14.765693  -874.549020             NaN
 -14.733968   417.221824       20.426009
 -14.702243    27.031941        5.199225
 -14.670519   629.123922       25.082343
 -14.638794  -627.886515             NaN
 -14.607069   792.027862       28.142990
 -14.575344   402.509062       20.062628
 -14.543619   175.316279       13.240705
 -14.511894    15.601792        3.949910
 -14.480169   539.652644       23.230425
 -14.448444   302.631908       17.396319
 -14.416719   -84.854794             NaN
 -14.384994  -241.993688             NaN
 -14.353269   527.207634       22.961002
 -14.321545   317.390138       17.815447
 -14.289820  -195.857555             NaN
 -14.258095  -348.893518             NaN
 -14.226370   649.940608       25.493933
 -14.194645   140.056547       11.834549
 -14.162920   145.967704       12.081709
 -14.131195  -158.423573             NaN
 -14.099470   539.701706       23.231481
 -14.067745    24.055058        4.904596
 -14.036020  -877.961260             NaN
 -14.004295  -798.204474             NaN
 -13.972571    -6.658209             NaN
 -13.940846  -227.923248             NaN
 -13.909121  -135.954450             NaN
 -13.877396  -893.713733             NaN
 -13.845671   642.860970       25.354703
 -13.813946   302.438705       17.390765
 -13.782221    18.859263        4.342725
 -13.750496  -836.920722             NaN
 -13.718771   809.205671       28.446541
 -13.687046    86.348295        9.292378
 -13.655321   371.398364       19.271699
 -13.623597   -52.231325             NaN
 -13.591872   665.403829       25.795423
 -13.560147   117.770244       10.852200
 -13.528422   546.184679       23.370594
 -13.496697  -222.512811             NaN
 -13.464972   494.301067       22.232883
 -13.433247   530.395793       23.030323
 -13.401522    96.999819        9.848849
 -13.369797  -189.020339             NaN
 -13.338072   727.634038       26.974693
 -13.306347   375.004962       19.365045
 -13.274622   614.020839       24.779444
 -13.242898   659.013117       25.671251
 -13.211173  1473.012418       38.379844
 -13.179448   232.619955       15.251884
 -13.147723   -51.516724             NaN
 -13.115998  -666.098974             NaN
 -13.084273   172.481426       13.133218
 -13.052548  -465.678912             NaN
 -13.020823  -917.568116             NaN
 -12.989098  -837.590448             NaN
 -12.957373   813.794159       28.527078
 -12.925648   366.604712       19.146924
 -12.893924   510.775830       22.600350
 -12.862199   -52.869812             NaN
 -12.830474   933.864075       30.559190
 -12.798749   289.466250       17.013708
 -12.767024  -141.937178             NaN
 -12.735299  -377.231218             NaN
 -12.703574  -210.898532             NaN
 -12.671849   805.639582       28.383791
 -12.640124   114.048745       10.679361
 -12.608399  -383.834956             NaN
 -12.576674   867.360925       29.450992
 -12.544950   713.323406       26.708115
 -12.513225   189.181849       13.754339
 -12.481500  -125.014248             NaN
 -12.449775   439.945585       20.974880
 -12.418050   462.032985       21.494953
 -12.386325   472.729733       21.742349
 -12.354600  -101.675394             NaN
 -12.322875  1438.546236       37.928172
 -12.291150   602.166894       24.539089
 -12.259425  1554.105162       39.422140
 -12.227700  -186.288730             NaN
 -12.195976   925.476359       30.421643
 -12.164251   -58.508096             NaN
 -12.132526  -201.556061             NaN
 -12.100801   -97.420949             NaN
 -12.069076  1194.482018       34.561279
 -12.037351  -415.789133             NaN
 -12.005626  -311.241079             NaN
 -11.973901 -1126.125900             NaN
 -11.942176  -617.299177             NaN
 -11.910451  -368.663609             NaN
 -11.878726   139.387088       11.806231
 -11.847001   -20.989610             NaN
 -11.815277  1344.327989       36.665079
 -11.783552   760.757602       27.581835
 -11.751827   659.430374       25.679376
 -11.720102   578.934956       24.061067
 -11.688377  1061.736662       32.584301
 -11.656652    72.127125        8.492769
 -11.624927   768.284352       27.717943
 -11.593202   -56.920276             NaN
 -11.561477   319.089038       17.863064
 -11.529752   416.894027       20.417983
 -11.498027    24.596849        4.959521
 -11.466303  -150.633672             NaN
 -11.434578   436.806360       20.899913
 -11.402853    67.319685        8.204857
 -11.371128   379.563120       19.482380
 -11.339403   110.432528       10.508688
 -11.307678   982.399974       31.343260
 -11.275953   663.820612       25.764716
 -11.244228  -247.210256             NaN
 -11.212503  -716.140093             NaN
 -11.180778   617.676225       24.853093
 -11.149053   631.821274       25.136055
 -11.117329   382.428753       19.555786
 -11.085604  -166.605252             NaN
 -11.053879   488.852454       22.110008
 -11.022154  -103.068649             NaN
 -10.990429     2.816834        1.678343
 -10.958704  -375.223706             NaN
 -10.926979   383.479110       19.582623
 -10.895254   398.059410       19.951426
 -10.863529   155.863155       12.484517
 -10.831804  -755.189165             NaN
 -10.800079   527.502821       22.967430
 -10.768355   243.763988       15.612943
 -10.736630  -326.449276             NaN
 -10.704905  -382.579285             NaN
 -10.673180   309.115105       17.581670
 -10.641455     0.759035        0.871226
 -10.609730  -589.116730             NaN
 -10.578005  -549.673382             NaN
 -10.546280   207.816279       14.415834
 -10.514555  -682.415785             NaN
 -10.482830   358.797401       18.941948
 -10.451105  -600.321987             NaN
 -10.419380   623.906987       24.978130
 -10.387656  -238.407387             NaN
 -10.355931   203.514469       14.265850
 -10.324206  -413.640368             NaN
 -10.292481   832.899256       28.859994
 -10.260756   -76.482274             NaN
 -10.229031   907.197137       30.119713
 -10.197306   125.863681       11.218898
 -10.165581   739.246225       27.189083
 -10.133856  -130.840062             NaN
 -10.102131    64.210285        8.013132
 -10.070406  -300.757681             NaN
 -10.038682   -37.396915             NaN
 -10.006957  -445.445436             NaN
  -9.975232   162.649119       12.753396
  -9.943507    68.827642        8.296243
  -9.911782   569.424783       23.862623
  -9.880057   489.391601       22.122197
  -9.848332   741.870799       27.237305
  -9.816607  -327.508544             NaN
  -9.784882   628.583999       25.071578
  -9.753157  -312.908695             NaN
  -9.721432  -455.185262             NaN
  -9.689708  -323.201613             NaN
  -9.657983   367.544208       19.171443
  -9.626258   142.371488       11.931952
  -9.594533   352.874343       18.784950
  -9.562808  -228.885621             NaN
  -9.531083   722.648745       26.882127
  -9.499358   693.136655       26.327489
  -9.467633   285.449663       16.895256
  -9.435908  -497.788045             NaN
  -9.404183   610.714709       24.712643
  -9.372458   382.832574       19.566108
  -9.340734   -75.108857             NaN
  -9.309009  -151.945681             NaN
  -9.277284   686.585110       26.202769
  -9.245559    18.229678        4.269623
  -9.213834   401.617864       20.040406
  -9.182109  -611.984732             NaN
  -9.150384   171.258704       13.086585
  -9.118659   454.725581       21.324296
  -9.086934   349.662721       18.699271
  -9.055209  -155.451961             NaN
  -9.023484   591.504412       24.320864
  -8.991759   346.292164       18.608927
  -8.960035   -44.652931             NaN
  -8.928310  -706.126571             NaN
  -8.896585  -114.461015             NaN
  -8.864860  -124.433401             NaN
  -8.833135  -124.377291             NaN
  -8.801410  -258.240949             NaN
  -8.769685   510.356959       22.591081
  -8.737960   892.467582       29.874196
  -8.706235   162.512985       12.748058
  -8.674510   -64.569117             NaN
  -8.642785   847.885644       29.118476
  -8.611061   852.500786       29.197616
  -8.579336   343.195428       18.525534
  -8.547611 -1165.723195             NaN
  -8.515886  -132.955152             NaN
  -8.484161  -687.201646             NaN
  -8.452436  -101.685358             NaN
  -8.420711  -511.397834             NaN
  -8.388986  1047.336512       32.362579
  -8.357261   837.751661       28.943940
  -8.325536   387.697801       19.690043
  -8.293811  -263.563755             NaN
  -8.262087   855.108034       29.242230
  -8.230362   292.774331       17.110650
  -8.198637   -37.246158             NaN
  -8.166912    10.208115        3.195014
  -8.135187  1020.321208       31.942467
  -8.103462   468.288211       21.639968
  -8.071737   154.371562       12.424635
  -8.040012   166.069800       12.886807
  -8.008287   759.818220       27.564800
  -7.976562  -112.639445             NaN
  -7.944837   186.308478       13.649486
  -7.913113  -593.215863             NaN
  -7.881388   505.376990       22.480591
  -7.849663   102.169547       10.107895
  -7.817938  -328.774678             NaN
  -7.786213  -267.228433             NaN
  -7.754488     5.068618        2.251359
  -7.722763  -161.778355             NaN
  -7.691038  -110.923581             NaN
  -7.659313  -511.075970             NaN
  -7.627588  1053.312088       32.454770
  -7.595863   899.002320       29.983367
  -7.564138    -7.245506             NaN
  -7.532414  -627.015582             NaN
  -7.500689  -173.134067             NaN
  -7.468964  -365.786559             NaN
  -7.437239  -471.062214             NaN
  -7.405514  -534.566569             NaN
  -7.373789   507.777164       22.533911
  -7.342064   -89.206862             NaN
  -7.310339   120.473277       10.976032
  -7.278614  -235.694105             NaN
  -7.246889   554.326363       23.544136
  -7.215164   187.312282       13.686208
  -7.183440  -488.751621             NaN
  -7.151715  -905.344382             NaN
  -7.119990  -578.376373             NaN
  -7.088265  -640.286705             NaN
  -7.056540  -649.324055             NaN
  -7.024815  -686.188783             NaN
  -6.993090  -127.819609             NaN
  -6.961365  -466.863206             NaN
  -6.929640  -391.499751             NaN
  -6.897915   -83.784588             NaN
  -6.866190   312.615662       17.680941
  -6.834466   200.219958       14.149910
  -6.802741    61.656644        7.852174
  -6.771016  -873.673026             NaN
  -6.739291   639.746795       25.293216
  -6.707566   -86.746016             NaN
  -6.675841    83.191400        9.120932
  -6.644116  -468.185470             NaN
  -6.612391   677.596646       26.030687
  -6.580666  -493.737908             NaN
  -6.548941  -704.403327             NaN
  -6.517216  -851.737600             NaN
  -6.485492   108.996479       10.440138
  -6.453767   -74.729402             NaN
  -6.422042  -462.173268             NaN
  -6.390317  -277.305230             NaN
  -6.358592   208.112331       14.426099
  -6.326867   -97.432549             NaN
  -6.295142   306.750176       17.514285
  -6.263417  -326.870524             NaN
  -6.231692    49.738833        7.052576
  -6.199967   -14.773258             NaN
  -6.168242    20.137230        4.487453
  -6.136517  -345.867333             NaN
  -6.104793   378.168360       19.446551
  -6.073068   -73.836787             NaN
  -6.041343  -579.101076             NaN
  -6.009618 -1196.935566             NaN
  -5.977893  -179.724554             NaN
  -5.946168   -61.188999             NaN
  -5.914443   -40.183305             NaN
  -5.882718  -540.061693             NaN
  -5.850993  1129.206757       33.603672
  -5.819268   595.910328       24.411275
  -5.787543   363.703819       19.071020
  -5.755819  -137.594773             NaN
  -5.724094   791.266058       28.129452
  -5.692369  -104.365227             NaN
  -5.660644  -341.439855             NaN
  -5.628919 -1004.868632             NaN
  -5.597194   217.118268       14.734934
  -5.565469  -191.382986             NaN
  -5.533744  -120.867958             NaN
  -5.502019  -690.973107             NaN
  -5.470294   441.834895       21.019869
  -5.438569   455.965203       21.353342
  -5.406845   803.844014       28.352143
  -5.375120  -355.063900             NaN
  -5.343395     0.390314        0.624751
  -5.311670   474.646522       21.786384
  -5.279945  -230.615296             NaN
  -5.248220    75.185308        8.670946
  -5.216495  1004.699361       31.696993
  -5.184770   330.236706       18.172416
  -5.153045   123.743616       11.124011
  -5.121320  -654.077282             NaN
  -5.089595    85.630976        9.253701
  -5.057871  -417.823652             NaN
  -5.026146    39.330752        6.271423
  -4.994421  -546.879737             NaN
  -4.962696  1036.000329       32.186959
  -4.930971   148.343560       12.179637
  -4.899246   228.907703       15.129696
  -4.867521  -535.033890             NaN
  -4.835796   138.340902       11.761841
  -4.804071  -314.829758             NaN
  -4.772346  -690.340081             NaN
  -4.740621  -467.745872             NaN
  -4.708896   311.403327       17.646624
  -4.677172   -20.511687             NaN
  -4.645447    19.995860        4.471673
  -4.613722  -579.884576             NaN
  -4.581997   276.918909       16.640881
  -4.550272    92.252164        9.604799
  -4.518547    86.981273        9.326375
  -4.486822  -585.028941             NaN
  -4.455097   748.235268       27.353889
  -4.423372   117.692789       10.848631
  -4.391647  -270.149880             NaN
  -4.359922  -544.866065             NaN
  -4.328198   493.492360       22.214688
  -4.296473   797.766366       28.244758
  -4.264748   266.796438       16.333905
  -4.233023  -450.782828             NaN
  -4.201298  -164.647957             NaN
  -4.169573  -191.652475             NaN
  -4.137848   416.882336       20.417697
  -4.106123   303.370731       17.417541
  -4.074398   838.455729       28.956100
  -4.042673   453.462162       21.294651
  -4.010948   107.166460       10.352123
  -3.979224  -499.593030             NaN
  -3.947499   481.091230       21.933792
  -3.915774  -607.352733             NaN
  -3.884049   469.099193       21.658698
  -3.852324  -125.484575             NaN
  -3.820599   885.378835       29.755316
  -3.788874   -88.606109             NaN
  -3.757149   556.649433       23.593419
  -3.725424   -19.749705             NaN
  -3.693699   535.562551       23.142224
  -3.661974  -586.568308             NaN
  -3.630250 -1402.778258             NaN
  -3.598525 -1431.704605             NaN
  -3.566800   -53.874306             NaN
  -3.535075  -938.582428             NaN
  -3.503350  -473.461306             NaN
  -3.471625  -423.420323             NaN
  -3.439900  -123.286539             NaN
  -3.408175   -84.113047             NaN
  -3.376450   -23.444216             NaN
  -3.344725  -330.170647             NaN
  -3.313000   426.274284       20.646411
  -3.281275   456.659248       21.369587
  -3.249551   158.762836       12.600113
  -3.217826  -302.995689             NaN
  -3.186101   -57.150847             NaN
  -3.154376  -515.614154             NaN
  -3.122651  -282.474509             NaN
  -3.090926   -20.351877             NaN
  -3.059201   295.315596       17.184749
  -3.027476  -402.903469             NaN
  -2.995751  -279.034917             NaN
  -2.964026  -821.346977             NaN
  -2.932301    -4.647409             NaN
  -2.900577  -617.565310             NaN
  -2.868852  -822.535967             NaN
  -2.837127 -1162.190870             NaN
  -2.805402  -299.331559             NaN
  -2.773677  -735.489241             NaN
  -2.741952  -618.167237             NaN
  -2.710227  -981.567954             NaN
  -2.678502   244.783494       15.645558
  -2.646777   -41.622311             NaN
  -2.615052  -286.544707             NaN
  -2.583327  -295.981199             NaN
  -2.551603   747.945786       27.348598
  -2.519878   234.593248       15.316437
  -2.488153  -220.840554             NaN
  -2.456428  -829.870701             NaN
  -2.424703   807.103562       28.409568
  -2.392978  -153.197155             NaN
  -2.361253  -644.465503             NaN
  -2.329528  -976.890232             NaN
  -2.297803    83.125717        9.117331
  -2.266078  -563.226120             NaN
  -2.234353  -547.983469             NaN
  -2.202629  -973.383831             NaN
  -2.170904   520.066288       22.804962
  -2.139179   361.314862       19.008284
  -2.107454  -166.983555             NaN
  -2.075729  -534.674719             NaN
  -2.044004  1439.187834       37.936629
  -2.012279   576.594272       24.012377
  -1.980554   644.993481       25.396722
  -1.948829    -5.611787             NaN
  -1.917104  1157.112689       34.016359
  -1.885379   291.017703       17.059241
  -1.853654    -0.200011             NaN
  -1.821930  -940.703590             NaN
  -1.790205   230.726455       15.189683
  -1.758480  -598.583583             NaN
  -1.726755  -353.003743             NaN
  -1.695030  -583.659070             NaN
  -1.663305   216.595406       14.717181
  -1.631580  -221.344668             NaN
  -1.599855  -532.538321             NaN
  -1.568130  -580.199271             NaN
  -1.536405   939.440161       30.650288
  -1.504680   379.768039       19.487638
  -1.472956   -31.482287             NaN
  -1.441231  -494.030948             NaN
  -1.409506  1092.669582       33.055553
  -1.377781   972.567093       31.186008
  -1.346056   972.493888       31.184834
  -1.314331   907.178386       30.119402
  -1.282606  1115.119671       33.393408
  -1.250881   791.327394       28.130542
  -1.219156   189.344437       13.760248
  -1.187431  -428.124506             NaN
  -1.155706    66.139897        8.132644
  -1.123982   -99.733621             NaN
  -1.092257    66.924534        8.180742
  -1.060532  -430.270374             NaN
  -1.028807   145.734714       12.072063
  -0.997082  -212.366596             NaN
  -0.965357   111.014923       10.536362
  -0.933632   244.135430       15.624834
  -0.901907  1391.148088       37.298098
  -0.870182   645.053329       25.397900
  -0.838457   626.281199       25.025611
  -0.806732   427.707362       20.681087
  -0.775007  1308.090989       36.167541
  -0.743283  1055.582535       32.489730
  -0.711558   556.809226       23.596805
  -0.679833    -9.945377             NaN
  -0.648108   599.236376       24.479305
  -0.616383  -259.752482             NaN
  -0.584658   565.498351       23.780209
  -0.552933  -496.880736             NaN
  -0.521208   168.168866       12.967994
  -0.489483   141.545138       11.897274
  -0.457758   569.805533       23.870600
  -0.426033   221.757614       14.891528
  -0.394309  1369.920721       37.012440
  -0.362584   226.689733       15.056219
  -0.330859   799.433344       28.274252
  -0.299134   649.345587       25.482260
  -0.267409  2663.296587       51.607137
  -0.235684  3067.051757       55.380969
  -0.203959  6190.809762       78.681699
  -0.172234 11444.524134      106.979083
  -0.140509 21466.018078      146.512860
  -0.108784 31871.430889      178.525715
  -0.077059 43699.322641      209.043829
  -0.045335 53866.390291      232.091340
  -0.013610 62706.136102      250.411933
   0.018115 59534.582056      243.997094
   0.049840 51517.061992      226.973703
   0.081565 39344.432364      198.354310
   0.113290 29256.343075      171.044857
   0.145015 20899.191500      144.565527
   0.176740 14366.817806      119.861661
   0.208465  8616.149933       92.823219
   0.240190  6986.957628       83.588023
   0.271915  6054.860479       77.812984
   0.303639  4925.487145       70.181815
   0.335364  3978.508539       63.075419
   0.367089  5443.958571       73.783186
   0.398814  5232.680167       72.337267
   0.430539  5152.018812       71.777565
   0.462264  6546.041707       80.907612
   0.493989  8314.675664       91.184843
   0.525714 10447.541495      102.213216
   0.557439 12066.579161      109.847982
   0.589164 13102.152039      114.464632
   0.620889 15679.703572      125.218623
   0.652614 19235.179817      138.690951
   0.684338 23506.488500      153.318259
   0.716063 25563.469151      159.885800
   0.747788 29993.010955      173.184904
   0.779513 34246.902527      185.059187
   0.811238 40983.533869      202.443903
   0.842963 48090.258036      219.294911
   0.874688 55295.840251      235.150676
   0.906413 60746.888635      246.468839
   0.938138 68483.599649      261.693713
   0.969863 75463.892049      274.706920
   1.001588 77464.579657      278.324594
   1.033312 73873.013341      271.795904
   1.065037 71383.415735      267.176750
   1.096762 68106.557431      260.972331
   1.128487 61585.492028      248.164244
   1.160212 53752.541254      231.845943
   1.191937 45791.602693      213.989726
   1.223662 38214.655744      195.485692
   1.255387 32309.809358      179.749296
   1.287112 27225.674035      165.002043
   1.318837 23978.359235      154.849473
   1.350562 20919.742151      144.636586
   1.382286 20237.770990      142.259520
   1.414011 18943.472009      137.635286
   1.445736 19279.063399      138.849067
   1.477461 19427.309060      139.381882
   1.509186 20984.082900      144.858838
   1.540911 19775.026678      140.623706
   1.572636 20299.648390      142.476835
   1.604361 20771.270579      144.122415
   1.636086 21129.504842      145.359915
   1.667811 19448.037732      139.456222
   1.699536 19069.194771      138.091255
   1.731260 17413.988057      131.962071
   1.762985 17851.612138      133.609925
   1.794710 16111.009272      126.929151
   1.826435 14520.859483      120.502529
   1.858160 12305.557833      110.930419
   1.889885 12206.472612      110.482906
   1.921610 11462.843364      107.064669
   1.953335  9373.847136       96.818630
   1.985060  8661.153627       93.065319
   2.016785  8853.537545       94.093239
   2.048510  7184.192500       84.759616
   2.080235  6417.760966       80.110929
   2.111959  6108.689148       78.158104
   2.143684  7273.649445       85.285693
   2.175409  6003.296682       77.480944
   2.207134  5740.296146       75.764742
   2.238859  5536.946460       74.410661
   2.270584  7323.389342       85.576804
   2.302309  6819.433473       82.579861
   2.334034  6365.837467       79.786198
   2.365759  6067.680620       77.895318
   2.397484  7269.106683       85.259056
   2.429209  7920.106523       88.994980
   2.460933  8927.054278       94.483090
   2.492658  8748.382871       93.532790
   2.524383 10396.045034      101.960998
   2.556108 10047.290909      100.236176
   2.587833  9829.765151       99.145172
   2.619558  9452.125681       97.222043
   2.651283 10539.224998      102.660728
   2.683008 10607.403910      102.992252
   2.714733  9757.047649       98.777769
   2.746458  8605.929962       92.768152
   2.778183  8571.148980       92.580500
   2.809907  8978.692144       94.755961
   2.841632  9857.635999       99.285628
   2.873357  8636.612801       92.933378
   2.905082 10123.009358      100.613167
   2.936807  9609.912231       98.030160
   2.968532  8999.848907       94.867533
   3.000257  8655.855997       93.036853
   3.031982  8792.079917       93.766092
   3.063707  7672.044625       87.590208
   3.095432  6881.907589       82.957264
   3.127157  5822.364279       76.304418
   3.158881  6019.842389       77.587643
   3.190606  5802.928574       76.176956
   3.222331  4525.451031       67.271473
   3.254056  3184.767461       56.433744
   3.285781  3984.216829       63.120653
   3.317506  3702.882925       60.851318
   3.349231  3753.107703       61.262613
   3.380956  2635.687078       51.338943
   3.412681  3997.540441       63.226106
   3.444406  3444.047694       58.686009
   3.476131  3557.532605       59.645055
   3.507856  3154.251804       56.162726
   3.539580  3961.209571       62.938141
   3.571305  3260.004727       57.096451
   3.603030  3102.960975       55.704228
   3.634755  3174.935193       56.346563
   3.666480  3308.397900       57.518674
   3.698205  2837.407234       53.267319
   3.729930  2368.603462       48.668300
   3.761655  2226.296050       47.183642
   3.793380  3619.182841       60.159645
   3.825105  2542.591470       50.424116
   3.856830  2336.919145       48.341692
   3.888554  1590.276062       39.878266
   3.920279  2935.268297       54.178116
   3.952004  2745.978531       52.402085
   3.983729  2695.758066       51.920690
   4.015454  3001.705864       54.787826
   4.047179  3773.161278       61.426064
   4.078904  4075.705451       63.841252
   4.110629  3175.485554       56.351447
   4.142354  2483.496517       49.834692
   4.174079  3539.485672       59.493577
   4.205804  3338.267526       57.777742
   4.237528  2939.873735       54.220602
   4.269253  2315.922749       48.124035
   4.300978  2941.090525       54.231822
   4.332703  3020.110413       54.955531
   4.364428  2808.505510       52.995335
   4.396153  2000.097529       44.722450
   4.427878  2545.293151       50.450898
   4.459603  1892.332603       43.500949
   4.491328  2092.693956       45.745972
   4.523053  2223.249216       47.151344
   4.554778  2927.125044       54.102912
   4.586502  2618.993402       51.176102
   4.618227  1308.052144       36.167004
   4.649952  1789.031335       42.296942
   4.681677  3300.335235       57.448544
   4.713402  2924.598323       54.079556
   4.745127  2333.735357       48.308750
   4.776852  1311.276146       36.211547
   4.808577  2134.232423       46.197753
   4.840302  1694.753439       41.167383
   4.872027  1504.249832       38.784660
   4.903752  1646.182786       40.573178
   4.935477  2427.151229       49.266127
   4.967201  1803.881599       42.472127
   4.998926  1917.457162       43.788779
   5.030651  1597.431275       39.967878
   5.062376  2832.652176       53.222666
   5.094101  2710.530749       52.062758
   5.125826  2689.237278       51.857856
   5.157551  2076.637507       45.570138
   5.189276  2697.664612       51.939047
   5.221001  1997.992318       44.698907
   5.252726  1862.305216       43.154434
   5.284451  1513.577631       38.904725
   5.316175  2260.779427       47.547654
   5.347900  2252.355344       47.458986
   5.379625  1952.352750       44.185436
   5.411350  1475.078639       38.406753
   5.443075  3072.056330       55.426134
   5.474800  2591.359238       50.905395
   5.506525  2163.585512       46.514358
   5.538250  1893.776860       43.517547
   5.569975  2646.733010       51.446409
   5.601700  1589.356284       39.866732
   5.633425  1274.137849       35.695068
   5.665149   872.487571       29.537901
   5.696874  2031.618106       45.073475
   5.728599  1851.717393       43.031586
   5.760324  1374.561413       37.075078
   5.792049   784.111878       28.001998
   5.823774  2385.958748       48.846277
   5.855499  1896.376430       43.547404
   5.887224  2019.514161       44.939005
   5.918949  1764.752559       42.008958
   5.950674  3082.480632       55.520092
   5.982399  2542.118800       50.419429
   6.014123  1889.198888       43.464916
   6.045848  1368.290618       36.990413
   6.077573  2461.681774       49.615338
   6.109298  1809.003056       42.532377
   6.141023  1418.859734       37.667755
   6.172748  1199.443514       34.632983
   6.204473  2205.881571       46.966814
   6.236198  1626.387822       40.328499
   6.267923  1771.835092       42.093172
   6.299648  1173.375466       34.254569
   6.331373  2293.017782       47.885465
   6.363098  1871.017878       43.255264
   6.394822  1857.043277       43.093425
   6.426547  1360.372496       36.883228
   6.458272  2392.091850       48.909016
   6.489997  2114.236513       45.980828
   6.521722  1593.045907       39.912979
   6.553447  1065.797218       32.646550
   6.585172  2007.936054       44.809999
   6.616897  1141.136367       33.780710
   6.648622  1100.953624       33.180621
   6.680347   686.515451       26.201440
   6.712072  1618.063216       40.225157
   6.743796   568.963086       23.852947
   6.775521   923.135474       30.383145
   6.807246  1298.060511       36.028607
   6.838971  1987.953982       44.586478
   6.870696  1593.956848       39.924389
   6.902421  2182.733660       46.719735
   6.934146  1941.703792       44.064768
   6.965871  2965.055105       54.452320
   6.997596  1397.049517       37.377126
   7.029321  1592.834510       39.910331
   7.061046   984.314499       31.373787
   7.092770  2460.997358       49.608440
   7.124495  1999.949850       44.720799
   7.156220  1279.657448       35.772300
   7.187945   732.639501       27.067314
   7.219670  1283.885446       35.831347
   7.251395  1332.772766       36.507160
   7.283120  1673.776968       40.911819
   7.314845  2010.902305       44.843085
   7.346570  2679.131788       51.760330
   7.378295  2056.438579       45.347972
   7.410020  2177.347161       46.662053
   7.441744  1842.491457       42.924253
   7.473469  2720.720951       52.160531
   7.505194  2329.255704       48.262363
   7.536919  2001.383148       44.736821
   7.568644  1554.663437       39.429221
   7.600369  2247.776264       47.410719
   7.632094  1923.804476       43.861196
   7.663819  1588.676893       39.858210
   7.695544   744.419757       27.284057
   7.727269  1702.452201       41.260783
   7.758994   908.698425       30.144625
   7.790719   483.633320       21.991665
   7.822443   863.954276       29.393099
   7.854168  1589.077086       39.863230
   7.885893  1350.232880       36.745515
   7.917618  1279.843432       35.774899
   7.949343  1062.866544       32.601634
   7.981068  2250.774210       47.442325
   8.012793  2121.076936       46.055151
   8.044518  1126.052135       33.556700
   8.076243  1344.295095       36.664630
   8.107968  2003.519764       44.760694
   8.139693  1543.599865       39.288673
   8.171417  1215.845527       34.868977
   8.203142  1054.446013       32.472234
   8.234867  1569.240586       39.613641
   8.266592  1367.989914       36.986348
   8.298317  1504.326735       38.785651
   8.330042   746.170435       27.316120
   8.361767  1605.544405       40.069245
   8.393492  1248.535982       35.334629
   8.425217  1237.810995       35.182538
   8.456942   704.897205       26.549900
   8.488667  1193.747020       34.550644
   8.520391   752.209241       27.426433
   8.552116   852.365758       29.195304
   8.583841   408.489416       20.211121
   8.615566  1601.343071       40.016785
   8.647291   916.141252       30.267825
   8.679016  1154.524255       33.978291
   8.710741  1032.820681       32.137528
   8.742466  1494.868467       38.663529
   8.774191   784.292103       28.005216
   8.805916   366.130218       19.134529
   8.837641  1016.618393       31.884454
   8.869365  1575.399580       39.691304
   8.901090  1621.044931       40.262202
   8.932815  2331.074080       48.281198
   8.964540  1047.004198       32.357444
   8.996265  1508.077719       38.833976
   9.027990  2098.780407       45.812448
   9.059715  1374.850765       37.078980
   9.091440   603.982842       24.576062
   9.123165  1273.909631       35.691871
   9.154890  1020.638719       31.947437
   9.186615   150.088060       12.251043
   9.218340   307.683299       17.540904
   9.250064   824.925770       28.721521
   9.281789   294.580885       17.163359
   9.313514   220.537049       14.850490
   9.345239   778.606379       27.903519
   9.376964  1303.512080       36.104184
   9.408689   538.582293       23.207376
   9.440414   232.978041       15.263618
   9.472139   874.978552       29.580036
   9.503864  1473.539107       38.386705
   9.535589  1266.640467       35.589893
   9.567314  1184.288685       34.413496
   9.599038   813.290218       28.518244
   9.630763  1459.847040       38.207945
   9.662488   849.969969       29.154244
   9.694213   882.880831       29.713311
   9.725938    37.167748        6.096536
   9.757663   376.102617       19.393365
   9.789388   802.183575       28.322845
   9.821113   891.163009       29.852353
   9.852838   865.921461       29.426543
   9.884563  1396.458817       37.369223
   9.916288  1569.918046       39.622191
   9.948012  1075.379370       32.792977
   9.979737   721.573082       26.862112
  10.011462  1186.512060       34.445784
  10.043187   779.513167       27.919763
  10.074912   747.682174       27.343778
  10.106637   206.251174       14.361447
  10.138362  1797.333992       42.394976
  10.170087  1369.061424       37.000830
  10.201812   544.949459       23.344153
  10.233537  -254.886547             NaN
  10.265262   910.480230       30.174165
  10.296986   665.789889       25.802905
  10.328711   179.589851       13.401114
  10.360436  -307.608891             NaN
  10.392161   824.510754       28.714295
  10.423886  1123.628740       33.520572
  10.455611   932.526892       30.537303
  10.487336   594.169335       24.375589
  10.519061  1251.211607       35.372470
  10.550786   376.189404       19.395603
  10.582511   278.139582       16.677517
  10.614236   165.315480       12.857507
  10.645961   811.555376       28.487811
  10.677685   -89.970543             NaN
  10.709410  -199.519141             NaN
  10.741135  -556.157502             NaN
  10.772860   693.855637       26.341140
  10.804585   334.747523       18.296107
  10.836310   795.547658       28.205454
  10.868035   233.377312       15.276692
  10.899760  1156.328641       34.004833
  10.931485   928.198871       30.466356
  10.963210   265.511499       16.294524
  10.994935   581.402526       24.112290
  11.026659  1376.142363       37.096393
  11.058384   864.518882       29.402702
  11.090109   213.596250       14.614932
  11.121834  -225.151854             NaN
  11.153559   124.341245       11.150841
  11.185284  -372.710720             NaN
  11.217009  -386.385159             NaN
  11.248734  -913.987208             NaN
  11.280459   302.599310       17.395382
  11.312184  -362.820183             NaN
  11.343909  -110.782720             NaN
  11.375633  -394.597884             NaN
  11.407358   839.800309       28.979308
  11.439083   178.548587       13.362207
  11.470808   293.411302       17.129253
  11.502533   -63.792457             NaN
  11.534258   548.930131       23.429258
  11.565983  -306.916398             NaN
  11.597708   -14.536545             NaN
  11.629433 -1143.747818             NaN
  11.661158  -127.489109             NaN
  11.692883  -426.572312             NaN
  11.724607  -602.733823             NaN
  11.756332 -1303.120023             NaN
  11.788057    27.211364        5.216451
  11.819782  -209.052547             NaN
  11.851507    58.647238        7.658148
  11.883232   496.169988       22.274873
  11.914957   720.585989       26.843733
  11.946682  -229.907330             NaN
  11.978407    39.495296        6.284528
  12.010132  -860.237682             NaN
  12.041857   130.202829       11.410645
  12.073582   281.607757       16.781173
  12.105306  -184.598690             NaN
  12.137031  -113.035068             NaN
  12.168756   587.010429       24.228298
  12.200481  -263.488843             NaN
  12.232206  -470.199710             NaN
  12.263931  -160.546041             NaN
  12.295656   993.233770       31.515612
  12.327381   483.052732       21.978461
  12.359106   529.856194       23.018605
  12.390831   -52.417485             NaN
  12.422556  1253.981804       35.411605
  12.454280   218.073825       14.767323
  12.486005    -5.499532             NaN
  12.517730    96.774079        9.837382
  12.549455   447.944478       21.164699
  12.581180  -465.729640             NaN
  12.612905  -868.663707             NaN
  12.644630 -1277.267906             NaN
  12.676355   -86.890672             NaN
  12.708080    45.865306        6.772393
  12.739805  -293.025694             NaN
  12.771530  -669.399101             NaN
  12.803254   717.994201       26.795414
  12.834979   624.625368       24.992506
  12.866704   790.717471       28.119699
  12.898429   -72.681957             NaN
  12.930154   502.031474       22.406059
  12.961879   268.107097       16.373976
  12.993604   405.313002       20.132387
  13.025329  -325.216590             NaN
  13.057054   780.380060       27.935283
  13.088779   327.755143       18.104009
  13.120504  -135.546066             NaN
  13.152228 -1352.084858             NaN
  13.183953   140.543037       11.855085
  13.215678  -162.251298             NaN
  13.247403  -497.215792             NaN
  13.279128  -881.098677             NaN
  13.310853   545.094388       23.347257
  13.342578   275.270024       16.591263
  13.374303   412.245315       20.303825
  13.406028   298.216413       17.268944
  13.437753   799.844852       28.281528
  13.469478    25.416583        5.041486
  13.501203  -158.771897             NaN
  13.532927 -1140.797339             NaN
  13.564652   141.899575       11.912161
  13.596377  -106.257377             NaN
  13.628102  -294.215134             NaN
  13.659827  -617.986466             NaN
  13.691552   452.568823       21.273665
  13.723277   -83.309419             NaN
  13.755002  -318.740211             NaN
  13.786727  -101.331957             NaN
  13.818452   785.348732       28.024074
  13.850177   590.590814       24.302074
  13.881901   407.086719       20.176390
  13.913626   383.746496       19.589449
  13.945351   913.766133       30.228565
  13.977076   403.350192       20.083580
  14.008801   -36.647668             NaN
  14.040526  -491.810473             NaN
  14.072251   709.710555       26.640393
  14.103976  -154.366652             NaN
  14.135701  -421.532017             NaN
  14.167426  -554.521616             NaN
  14.199151   925.625953       30.424102
  14.230875  -361.955391             NaN
  14.262600   579.522931       24.073283
  14.294325  -570.969894             NaN
  14.326050   340.005578       18.439240
  14.357775   228.879482       15.128763
  14.389500   -71.653549             NaN
  14.421225  -346.127701             NaN
  14.452950   788.959322       28.088420
  14.484675  -170.983520             NaN
  14.516400    83.310693        9.127469
  14.548125    99.559760        9.977964
  14.579849   744.885790       27.292596
  14.611574   162.060568       12.730301
  14.643299   108.899559       10.435495
  14.675024   191.597308       13.841868
  14.706749   130.408326       11.419646
  14.738474  -169.897691             NaN
  14.770199   618.260236       24.864839
  14.801924   352.012292       18.761991
  14.833649  1086.797986       32.966619
  14.865374    41.613191        6.450829
  14.897099   424.323465       20.599113
  14.928824  -274.556979             NaN
  14.960548   331.068436       18.195286
  14.992273   509.181075       22.565041
  15.023998   -29.922463             NaN
  15.055723  -640.842839             NaN
  15.087448   893.989082       29.899650
  15.119173   388.984238       19.722683
  15.150898   433.279162       20.815359
  15.182623   -61.262348             NaN
  15.214348   326.639870       18.073181
  15.246073  -307.039358             NaN
  15.277798  -623.901892             NaN
  15.309522  -647.057129             NaN
  15.341247  -332.935546             NaN
  15.372972  -393.007176             NaN
  15.404697  -574.951100             NaN
  15.436422 -1003.949475             NaN
  15.468147   553.940251       23.535935
  15.499872   371.539064       19.275349
  15.531597   192.699268       13.881616
  15.563322   -98.755667             NaN
  15.595047   729.854751       27.015824
  15.626772    51.401376        7.169475
  15.658496  -189.374184             NaN
  15.690221  -620.668695             NaN
  15.721946   500.642141       22.375034
  15.753671  -361.562261             NaN
  15.785396  -798.260792             NaN
  15.817121  -847.639559             NaN
  15.848846   113.260082       10.642372
  15.880571   -53.137611             NaN
  15.912296   191.938734       13.854196
  15.944021  -211.732927             NaN
  15.975746  1363.193190       36.921446
  16.007470   661.363734       25.716993
  16.039195   -89.882264             NaN
  16.070920  -781.651095             NaN
  16.102645   166.189024       12.891432
  16.134370    94.231062        9.707269
  16.166095   473.761490       21.766063
  16.197820  -308.928238             NaN
  16.229545   343.821313       18.542419
  16.261270  -509.583724             NaN
  16.292995  -609.886223             NaN
  16.324720  -697.337500             NaN
  16.356445   756.027496       27.495954
  16.388169   108.113474       10.397763
  16.419894    54.070842        7.353288
  16.451619    55.966868        7.481101
  16.483344   898.186024       29.969752
  16.515069   190.540872       13.803654
  16.546794   -58.629567             NaN
  16.578519  -856.614719             NaN
  16.610244   644.893950       25.394762
  16.641969   163.936130       12.803755
  16.673694  -314.014125             NaN
  16.705419  -596.073437             NaN
  16.737143   123.187679       11.098995
  16.768868  -610.380872             NaN
  16.800593  -591.627964             NaN
  16.832318  -555.661279             NaN
  16.864043   546.488288       23.377089
  16.895768   -22.439629             NaN
  16.927493   198.304932       14.082078
  16.959218   176.693776       13.292621
  16.990943   779.055674       27.911569
  17.022668  -190.838751             NaN
  17.054393  -834.150378             NaN
  17.086117  -601.638352             NaN
  17.117842  -218.927504             NaN
  17.149567 -1146.365792             NaN
  17.181292  -718.653953             NaN
  17.213017 -1052.657997             NaN
  17.244742   442.310200       21.031172
  17.276467  -439.916226             NaN
  17.308192   243.127562       15.592548
  17.339917  -490.550375             NaN
  17.371642   350.202168       18.713689
  17.403367   435.965065       20.879776
  17.435091  -431.545754             NaN
  17.466816  -665.261289             NaN
  17.498541   796.078759       28.214868
  17.530266   229.097134       15.135955
  17.561991  -503.102452             NaN
  17.593716  -802.248462             NaN
  17.625441   -83.212253             NaN
  17.657166  -689.797331             NaN
  17.688891  -631.262296             NaN
  17.720616  -559.988593             NaN
  17.752341   263.052904       16.218906
  17.784066  -171.896339             NaN
  17.815790  -163.742984             NaN
  17.847515  -323.731904             NaN
  17.879240   402.886610       20.072036
  17.910965  -292.240618             NaN
  17.942690    67.931458        8.242054
  17.974415  -446.429311             NaN
  18.006140  1063.620706       32.613198
  18.037865   498.059288       22.317242
  18.069590   -19.054407             NaN
  18.101315  -134.049859             NaN
  18.133040   742.742816       27.253308
  18.164764  -340.306168             NaN
  18.196489  -161.671745             NaN
  18.228214  -584.091378             NaN
  18.259939   472.660395       21.740754
  18.291664    35.682124        5.973452
  18.323389  -270.403840             NaN
  18.355114  -702.824485             NaN
  18.386839   255.023706       15.969462
  18.418564  -192.999820             NaN
  18.450289   150.617810       12.272645
  18.482014  -147.369106             NaN
  18.513738   728.984824       26.999719
  18.545463   277.573767       16.660545
  18.577188  -269.758549             NaN
  18.608913  -507.948579             NaN
  18.640638   374.358108       19.348336
  18.672363  -345.465301             NaN
  18.704088  -526.402288             NaN
  18.735813  -487.680796             NaN
  18.767538  1015.459612       31.866277
  18.799263   186.356743       13.651254
  18.830988    69.315596        8.325599
  18.862712   456.328260       21.361841
  18.894437  1258.595478       35.476689
  18.926162  1547.634483       39.339986
  18.957887   730.451994       27.026875
  18.989612   129.467151       11.378363
  19.021337   292.973796       17.116477
  19.053062   131.885065       11.484122
  19.084787   -76.392777             NaN
  19.116512  -467.030820             NaN
  19.148237   569.610711       23.866519
  19.179962   435.388450       20.865964
  19.211687   518.653995       22.773976
  19.243411  -277.836717             NaN
  19.275136   854.624520       29.233962
  19.306861   177.134694       13.309196
  19.338586  -359.990720             NaN
  19.370311  -586.943072             NaN
  19.402036   665.716986       25.801492
  19.433761  -140.813042             NaN
  19.465486    75.131866        8.667864
  19.497211  -174.023591             NaN
  19.528936   636.566673       25.230273
  19.560661   206.853739       14.382411
  19.592385   137.398319       11.721703
  19.624110   154.855211       12.444083
  19.655835  1428.847009       37.800093
  19.687560   457.365757       21.386111
  19.719285   379.848133       19.489693
  19.751010   -12.572960             NaN
  19.782735   401.111940       20.027779
  19.814460     0.806944        0.898301
  19.846185  -115.481590             NaN
  19.877910  -487.726809             NaN
  19.909635   255.478663       15.983700
  19.941359   435.402197       20.866293
  19.973084    83.357694        9.130043
  20.004809   136.193938       11.670216
  20.036534   335.942083       18.328723
  20.068259  -311.993592             NaN
  20.099984  -279.389879             NaN
  20.131709  -708.334465             NaN
  20.163434  -199.993998             NaN
  20.195159  -540.360046             NaN
  20.226884  -438.609109             NaN
  20.258609  -496.928807             NaN
  20.290333   191.697874       13.845500
  20.322058   -64.293157             NaN
  20.353783  -303.999854             NaN
  20.385508  -564.766880             NaN
  20.417233   527.618332       22.969944
  20.448958   519.568415       22.794043
  20.480683  -118.419603             NaN
  20.512408 -1269.664628             NaN
  20.544133    57.525856        7.584580
  20.575858  -106.593044             NaN
  20.607583  -507.201178             NaN
  20.639308  -502.985697             NaN
  20.671032   691.493689       26.296268
  20.702757   221.974928       14.898823
  20.734482   165.904695       12.880400
  20.766207  -483.332873             NaN
  20.797932   158.761982       12.600079
  20.829657  -165.387465             NaN
  20.861382  -270.681378             NaN
  20.893107 -1047.567645             NaN
  20.924832  -321.081266             NaN
  20.956557 -1185.085759             NaN
  20.988282 -1096.862936             NaN
  21.020006 -1121.092325             NaN
  21.051731   -73.999269             NaN
  21.083456  -509.354658             NaN
  21.115181  -504.840519             NaN
  21.146906 -1117.092046             NaN
  21.178631   231.330539       15.209554
  21.210356    52.912974        7.274130
  21.242081   -84.960957             NaN
  21.273806  -279.155440             NaN
  21.305531   774.668968       27.832876
  21.337256  -233.392053             NaN
  21.368980  -520.950496             NaN
  21.400705  -639.451301             NaN
  21.432430   158.910475       12.605970
  21.464155  -690.546780             NaN
  21.495880  -468.357103             NaN
  21.527605  -636.267018             NaN
  21.559330   187.891872       13.707366
  21.591055    71.880974        8.478265
  21.622780    85.169983        9.228758
  21.654505  -673.802259             NaN
  21.686230   339.693080       18.430764
  21.717954   383.292619       19.577860
  21.749679   106.302221       10.310297
  21.781404  -296.024164             NaN
  21.813129  1117.998336       33.436482
  21.844854   400.038480       20.000962
  21.876579   358.153590       18.924946
  21.908304  -651.652870             NaN
  21.940029   177.842194       13.335749
  21.971754  -165.512473             NaN
  22.003479  -589.642129             NaN
  22.035204 -1114.487181             NaN
  22.066929    88.250953        9.394198
  22.098653  -481.316441             NaN
  22.130378  -667.050415             NaN
  22.162103  -995.917379             NaN
  22.193828   172.009330       13.115233
  22.225553  -169.093230             NaN
  22.257278   111.164479       10.543457
  22.289003   -52.432140             NaN
  22.320728   468.594640       21.647047
  22.352453  -144.352189             NaN
  22.384178   -54.594638             NaN
  22.415903  -704.788145             NaN
  22.447627   117.825877       10.854763
  22.479352  -374.573902             NaN
  22.511077    78.583247        8.864719
  22.542802  -383.563181             NaN
  22.574527  -236.657669             NaN
  22.606252  -972.514087             NaN
  22.637977  -631.492785             NaN
  22.669702  -980.754991             NaN
  22.701427  -105.784627             NaN
  22.733152  -386.457970             NaN
  22.764877    -0.568470             NaN
  22.796601  -736.559342             NaN
  22.828326    48.414138        6.958027
  22.860051  -170.516537             NaN
  22.891776    12.356317        3.515155
  22.923501  -470.037646             NaN
  22.955226   820.163134       28.638490
  22.986951   -39.995897             NaN
  23.018676  -176.175477             NaN
  23.050401  -725.030069             NaN
  23.082126   -23.152398             NaN
  23.113851  -564.205110             NaN
  23.145576  -119.545699             NaN
  23.177300  -377.020740             NaN
  23.209025   618.727476       24.874233
  23.240750   215.731554       14.687803
  23.272475    62.362645        7.897002
  23.304200  -666.688761             NaN
  23.335925   345.758445       18.594581
  23.367650  -130.613718             NaN
  23.399375  -324.215943             NaN
  23.431100  -965.247730             NaN
  23.462825  -266.605612             NaN
  23.494550   441.813161       21.019352
  23.526274  -135.103346             NaN
  23.557999  -792.503320             NaN
  23.589724   426.389966       20.649212
  23.621449  -897.593465             NaN
  23.653174  -592.498288             NaN
  23.684899  -941.199373             NaN
  23.716624   109.227362       10.451189
  23.748349  -753.194188             NaN
  23.780074    43.860537        6.622729
  23.811799  -910.348103             NaN
  23.843524   512.873629       22.646713
  23.875248   272.489709       16.507262
  23.906973   221.095407       14.869277
  23.938698  -919.460841             NaN
  23.970423   430.783456       20.755324
  24.002148  -518.709835             NaN
  24.033873  -412.085838             NaN
  24.065598  -558.670386             NaN
  24.097323   321.021180       17.917064
  24.129048  -724.429004             NaN
  24.160773  -580.994237             NaN
  24.192498  -861.659079             NaN
  24.224222    39.519884        6.286484
  24.255947  -508.225311             NaN
  24.287672   -81.791423             NaN
  24.319397  -579.829857             NaN
  24.351122   116.403597       10.789050
  24.382847  -208.262250             NaN
  24.414572  -116.684621             NaN
  24.446297  -945.192145             NaN
  24.478022   250.898832       15.839786
  24.509747  -509.961005             NaN
  24.541472  -306.069529             NaN
  24.573197 -1486.909117             NaN
  24.604921  -246.049863             NaN
  24.636646  -117.625451             NaN
  24.668371  -567.524205             NaN
  24.700096  -455.366837             NaN
  24.731821    94.887300        9.741011
  24.763546  -352.133389             NaN
  24.795271  -488.366044             NaN
  24.826996  -656.531928             NaN
  24.858721  -283.495706             NaN
  24.890446  -110.882425             NaN
  24.922171  -631.145261             NaN
  24.953895 -1153.717901             NaN
  24.985620  -339.338697             NaN
  25.017345  -704.499115             NaN
  25.049070  -675.493386             NaN
  25.080795 -1289.340610             NaN
  25.112520  -363.518475             NaN
  25.144245  -734.611208             NaN
  25.175970  -153.824402             NaN
  25.207695  -284.804160             NaN
  25.239420   487.499440       22.079389
  25.271145  -720.835897             NaN
  25.302869   108.009430       10.392759
  25.334594   155.304860       12.462137
  25.366319   638.130539       25.261246
  25.398044   829.894938       28.807897
  25.429769   214.493745       14.645605
  25.461494  -347.956526             NaN
  25.493219   472.165190       21.729362
  25.524944  -695.733648             NaN
  25.556669  -674.595606             NaN
  25.588394 -1054.609934             NaN
  25.620119   267.798782       16.364559
  25.651843  -379.638068             NaN
  25.683568  -495.934745             NaN
  25.715293    84.987008        9.218840
  25.747018  1268.329830       35.613619
  25.778743   479.387904       21.894929
  25.810468   -65.056920             NaN
  25.842193  -353.125943             NaN
  25.873918   129.618586       11.385016
  25.905643  -474.124724             NaN
  25.937368  -459.827133             NaN
  25.969093 -1335.688263             NaN
  26.000818  -516.058393             NaN
  26.032542  -916.161225             NaN
  26.064267  -692.724056             NaN
  26.095992   -83.881350             NaN
  26.127717   943.634492       30.718634
  26.159442   683.819074       26.149934
  26.191167   561.623952       23.698607
  26.222892  -129.028056             NaN
  26.254617   758.883200       27.547835
  26.286342   -37.223714             NaN
  26.318067  -404.967637             NaN
  26.349792  -652.348566             NaN
  26.381516   867.231359       29.448792
  26.413241  -186.565493             NaN
  26.444966  -597.009115             NaN
  26.476691  -639.625480             NaN
  26.508416   162.867675       12.761962
  26.540141  -419.719740             NaN
  26.571866     6.491091        2.547762
  26.603591  -503.500280             NaN
  26.635316  1005.213322       31.705099
  26.667041   439.415567       20.962241
  26.698766    28.945412        5.380094
  26.730490  -400.221130             NaN
  26.762215  -114.086145             NaN
  26.793940   306.402081       17.504345
  26.825665  -273.495818             NaN
  26.857390  -338.517840             NaN
  26.889115   436.162728       20.884509
  26.920840    71.224382        8.439454
  26.952565   -18.939023             NaN
  26.984290 -1322.549531             NaN
  27.016015 -2894.343935             NaN
  27.047740 -4452.940457             NaN